bag_stamp_ns,bag_t_sec,ros_header_sec,ros_header_nanosec,ros_header_t_sec,frame_id,gyro_x,gyro_y,gyro_z,acc_x,acc_y,acc_z,mag_x,mag_y,mag_z,raw_vnymr
1762845177901453173,1762845177.9014533,1762845177,900702049,1762845177.900702,imu1_frame,-5.129863,-8.188816,7.101744,-1.924,4.994,4.82,-0.0001578,-0.0001473,0.0005322,
1762845177934656402,1762845177.9346566,1762845177,931485654,1762845177.9314857,imu1_frame,-3.272081,-8.356826,5.824449,-0.841,-3.647,-11.497,-7.630000000000001e-05,-0.0001749,0.0005701,
1762845177953804015,1762845177.9538043,1762845177,952249099,1762845177.952249,imu1_frame,-1.469486,-5.048713,3.562935,3.266,-5.433,-13.324,-7.9e-06,-0.0001951,0.0005766,
1762845177979516623,1762845177.9795167,1762845177,978406915,1762845177.978407,imu1_frame,-1.69491,-4.326462,1.405391,4.92,-3.719,-9.102,4.3700000000000005e-05,-0.00022090000000000003,0.0005729,
1762845178003167774,1762845178.0031679,1762845178,2086275,1762845178.0020862,imu1_frame,-1.019238,-3.330179,-0.017072,7.35,2.772,-10.715,9.35e-05,-0.0002277,0.0005489000000000001,
1762845178026476759,1762845178.0264769,1762845178,25764302,1762845178.0257642,imu1_frame,-0.015872,-2.328624,0.036701,6.638,4.026,-13.302,0.00012429999999999999,-0.00024249999999999999,0.000532,
1762845178060296279,1762845178.0602963,1762845178,59386738,1762845178.0593867,imu1_frame,-1.477011,-0.561572,0.361041,7.835,10.699,-11.209,0.0001396,-0.0002557,0.0005209,
1762845178083133515,1762845178.0831335,1762845178,80960099,1762845178.08096,imu1_frame,-2.552613,-2.156221,2.367834,4.377,4.582,-2.153,0.0001358,-0.0002793,0.000505,
1762845178102523669,1762845178.1025238,1762845178,101929836,1762845178.10193,imu1_frame,-2.592913,-3.872699,2.303571,1.637,-3.139,-3.432,0.0001396,-0.0003125,0.0004642,
1762845178127080236,1762845178.1270802,1762845178,125928779,1762845178.1259289,imu1_frame,-2.004608,-4.768468,1.29579,1.681,1.995,-8.413,0.0001548,-0.0003281,0.00042780000000000004,
1762845178151756387,1762845178.1517563,1762845178,151201012,1762845178.151201,imu1_frame,1.301866,2.431011,2.7861,3.932,4.409,-14.709,0.0001316,-0.000323,0.00043190000000000004,
1762845178176622413,1762845178.1766224,1762845178,176113288,1762845178.1761134,imu1_frame,-0.938139,1.865021,2.223373,-0.166,1.66,-6.0,8.83e-05,-0.00032690000000000003,0.00043369999999999997,
1762845178200475897,1762845178.200476,1762845178,200018398,1762845178.2000184,imu1_frame,-0.475089,1.017232,1.170222,2.626,-1.144,-7.563,4.84e-05,-0.0003261,0.0004289,
1762845178225785214,1762845178.2257853,1762845178,225237340,1762845178.2252374,imu1_frame,-0.483993,0.016114,1.175097,5.957,2.474,-10.432,2.92e-05,-0.0003412,0.0004415,
1762845178250975532,1762845178.2509756,1762845178,250447782,1762845178.2504478,imu1_frame,-0.096408,0.996945,2.059006,5.549,3.313,-14.343,5.7999999999999995e-06,-0.0003443,0.0004256,
1762845178275705974,1762845178.275706,1762845178,275136558,1762845178.2751365,imu1_frame,-0.111205,1.291969,1.520113,2.209,-1.352,-7.418,-2.61e-05,-0.00033539999999999997,0.0004292,
1762845178301839624,1762845178.3018398,1762845178,301036458,1762845178.3010364,imu1_frame,0.318231,0.825802,0.289929,4.046,2.597,-5.017,-4.5900000000000004e-05,-0.0003232,0.00042270000000000003,
1762845178325258150,1762845178.3252583,1762845178,324831901,1762845178.324832,imu1_frame,0.552979,0.188424,1.039736,5.177,4.071,-9.337,-5.02e-05,-0.0003148,0.0004184,
1762845178351217259,1762845178.3512173,1762845178,350517551,1762845178.3505175,imu1_frame,1.126629,0.178941,1.779282,4.42,0.133,-7.264,-6.88e-05,-0.0003038,0.0004306,
1762845178376193534,1762845178.3761938,1762845178,375746243,1762845178.3757463,imu1_frame,-0.190567,-0.861565,2.024845,4.475,0.404,-5.293,-8.1e-05,-0.0003036,0.0004527,
1762845178400931893,1762845178.4009318,1762845178,400345727,1762845178.4003458,imu1_frame,-0.087266,-0.309265,1.175788,3.279,-3.033,-9.652,-8.76e-05,-0.0002988,0.0004376,
1762845178426763918,1762845178.4267642,1762845178,426091960,1762845178.426092,imu1_frame,0.105888,-0.450433,0.662677,3.617,2.498,-7.998,-9.520000000000001e-05,-0.0002915,0.0004438,
1762845178451659236,1762845178.4516594,1762845178,451118861,1762845178.451119,imu1_frame,0.343388,-0.148064,0.84019,4.598,-1.712,-10.394,-9.93e-05,-0.00027610000000000004,0.0004501,
1762845178476199678,1762845178.4761999,1762845178,475686803,1762845178.4756868,imu1_frame,0.152697,0.003495,0.643143,5.001,0.884,-9.095,-9.94e-05,-0.0002784,0.0004461,
1762845178501372370,1762845178.5013726,1762845178,500774454,1762845178.5007744,imu1_frame,-0.135029,0.13726,0.456826,4.432,0.569,-6.876,-0.0001049,-0.0002772,0.0004511,
1762845178525816980,1762845178.5258172,1762845178,525115897,1762845178.525116,imu1_frame,-0.013153,0.360318,-0.080776,4.981,1.993,-6.808,-0.0001115,-0.00027350000000000003,0.0004627,
1762845178550810422,1762845178.5508106,1762845178,550173214,1762845178.5501733,imu1_frame,0.855025,0.652031,-0.73729,6.907,6.567,-5.995,-0.00011260000000000001,-0.0002758,0.00045200000000000004,
1762845178576221072,1762845178.5762212,1762845178,575560364,1762845178.5755603,imu1_frame,-0.015155,0.110414,-0.307545,2.687,3.903,-7.52,-0.00011020000000000001,-0.0002676,0.0004574,
1762845178601804722,1762845178.601805,1762845178,601164806,1762845178.6011648,imu1_frame,0.326669,0.226416,0.482276,5.381,4.017,-9.15,-0.0001133,-0.0002557,0.00046110000000000004,
1762845178625264040,1762845178.6252642,1762845178,624899666,1762845178.6248996,imu1_frame,-0.52178,-0.469,1.589333,2.744,-0.01,-11.046,-0.0001166,-0.00025330000000000003,0.00045290000000000006,
1762845178650965524,1762845178.6509657,1762845178,650697732,1762845178.6506977,imu1_frame,-0.092054,-0.017943,0.4729,2.854,-3.716,-8.918,-0.0001234,-0.0002614,0.000458,
1762845178676843424,1762845178.6768436,1762845178,676105924,1762845178.676106,imu1_frame,0.302165,-0.78488,-1.605611,3.603,-2.122,-3.591,-0.0001211,-0.0002544,0.00046600000000000005,
1762845178701373533,1762845178.7013736,1762845178,700818534,1762845178.7008185,imu1_frame,1.085753,-1.289586,-1.774676,4.576,5.183,-6.685,-9.35e-05,-0.0002632,0.0004609,
1762845178726379642,1762845178.7263796,1762845178,725873101,1762845178.725873,imu1_frame,0.452009,-3.361272,-1.931755,2.203,1.808,-6.25,-6.02e-05,-0.0002603,0.0004839,
1762845178752123959,1762845178.752124,1762845178,751082668,1762845178.7510827,imu1_frame,0.664724,-1.820615,-0.665984,1.859,-3.069,-11.847,-2.55e-05,-0.0002455,0.0004935,
1762845178777070943,1762845178.777071,1762845178,776322027,1762845178.7763221,imu1_frame,-0.601621,-1.348045,-1.341095,4.968,-1.583,-5.959,-3.4e-06,-0.0002519,0.00048540000000000003,
1762845178801047386,1762845178.8010473,1762845178,800157053,1762845178.800157,imu1_frame,-0.627841,-2.094695,-0.717527,4.071,4.693,-15.426,2.31e-05,-0.00025590000000000004,0.0004775,
1762845178825434953,1762845178.825435,1762845178,825032954,1762845178.825033,imu1_frame,-0.336484,0.037075,0.106513,5.091,1.473,-15.121,3.18e-05,-0.0002655,0.0004954,
1762845178849941021,1762845178.849941,1762845178,849753271,1762845178.8497534,imu1_frame,-1.028062,0.866273,-0.745561,2.476,-1.635,-11.145,3.05e-05,-0.0002738,0.0004728,
1762845178875491671,1762845178.8754916,1762845178,875285921,1762845178.8752859,imu1_frame,-0.350586,1.301804,-1.450495,-1.037,3.771,-7.429,2.7099999999999998e-05,-0.0002796,0.0004753,
1762845178901602696,1762845178.901603,1762845178,900979405,1762845178.9009795,imu1_frame,-1.580524,0.004348,0.392377,2.58,5.771,-7.237,2.82e-05,-0.00027850000000000005,0.0004634,
1762845178925097306,1762845178.9250972,1762845178,924772556,1762845178.9247725,imu1_frame,-0.265984,1.243236,0.592207,4.228,2.98,-12.499,1.68e-05,-0.0002972,0.000451,
1762845178950956956,1762845178.950957,1762845178,950609956,1762845178.95061,imu1_frame,0.242164,0.968288,0.792582,4.644,5.403,-5.056,2.3e-06,-0.0003004,0.0004516,
1762845178976784856,1762845178.976785,1762845178,976291398,1762845178.9762914,imu1_frame,0.387643,-0.398068,1.396241,3.394,3.929,-4.77,-1.33e-05,-0.0003013,0.0004682,
1762845179000597090,1762845179.000597,1762845179,238841,1762845179.000239,imu1_frame,-0.34482,-1.087559,1.352944,2.746,1.195,-7.771,-1.29e-05,-0.0002824,0.00045190000000000003,
1762845179026589490,1762845179.0265896,1762845179,26058949,1762845179.026059,imu1_frame,0.131815,-0.497712,0.486855,2.624,-0.719,-11.126,-1.6400000000000002e-05,-0.00029299999999999997,0.0004639,
1762845179052553307,1762845179.0525534,1762845179,52234224,1762845179.0522342,imu1_frame,0.321379,0.307372,-0.598067,2.705,-0.897,-11.274,-1.3899999999999999e-05,-0.00027529999999999997,0.0004625,
1762845179076382083,1762845179.0763824,1762845179,75864459,1762845179.0758646,imu1_frame,0.779248,0.654479,-0.770091,3.807,1.285,-9.459,-1.1599999999999999e-05,-0.0002742,0.0004612,
1762845179103459024,1762845179.1034591,1762845179,102168317,1762845179.1021683,imu1_frame,1.433169,0.505362,0.250111,3.975,3.495,-8.217,-1.27e-05,-0.0002694,0.0004745,
1762845179128571383,1762845179.1285715,1762845179,125101885,1762845179.1251018,imu1_frame,1.854388,0.275372,0.404742,2.495,-2.22,-9.72,-2.3500000000000002e-05,-0.0002562,0.0004938000000000001,
1762845179150582202,1762845179.1505823,1762845179,150182536,1762845179.1501825,imu1_frame,2.303752,0.583528,-0.222042,3.979,-0.722,-9.496,-2.75e-05,-0.0002325,0.0004946,
1762845179176779644,1762845179.1767797,1762845179,176229352,1762845179.1762292,imu1_frame,1.952961,-0.049192,0.293648,4.138,1.064,-8.223,-3.03e-05,-0.0002076,0.0005102,
1762845179201488836,1762845179.201489,1762845179,200636587,1762845179.2006366,imu1_frame,2.268703,-0.36994,0.865031,4.729,-1.878,-10.969,-3.08e-05,-0.00017449999999999999,0.0005271000000000001,
1762845179226601320,1762845179.2266014,1762845179,226082987,1762845179.226083,imu1_frame,2.170431,-0.499441,0.710797,4.025,-1.633,-4.523,-3.03e-05,-0.0001509,0.0005322,
1762845179251630345,1762845179.2516305,1762845179,250982679,1762845179.2509828,imu1_frame,1.695583,-1.340098,0.935907,4.314,1.828,-9.841,-1.8900000000000002e-05,-0.0001357,0.0005420000000000001,
1762845179276219830,1762845179.27622,1762845179,275616955,1762845179.275617,imu1_frame,0.669328,-1.063488,1.496502,4.355,-1.684,-13.837,-1.53e-05,-0.0001204,0.0005593,
1762845179300985022,1762845179.300985,1762845179,300436064,1762845179.300436,imu1_frame,0.124845,-0.946817,0.970631,2.735,-5.809,-6.278,-5.1e-06,-0.0001111,0.0005504,
1762845179327620338,1762845179.3276205,1762845179,326705464,1762845179.3267055,imu1_frame,0.180897,-1.498306,0.58479,4.547,-4.796,-8.709,7.100000000000001e-06,-0.0001114,0.0005577,
1762845179351809239,1762845179.3518095,1762845179,350827573,1762845179.3508275,imu1_frame,0.310226,-1.242406,0.552491,2.691,-3.213,-9.707,1.84e-05,-9.62e-05,0.0005634,
1762845179376514765,1762845179.376515,1762845179,375659391,1762845179.3756595,imu1_frame,-0.41996,-1.530819,0.235277,1.828,-4.914,-8.277,3.63e-05,-8.95e-05,0.0005483,
1762845179401231041,1762845179.4012313,1762845179,400553125,1762845179.4005532,imu1_frame,-0.671363,-1.410125,-0.236238,2.025,-2.151,-10.412,5.49e-05,-0.00010520000000000001,0.0005467,
1762845179429936606,1762845179.4299366,1762845179,427512441,1762845179.4275124,imu1_frame,-0.2627,-1.089592,0.054529,0.927,-2.862,-10.882,6.900000000000001e-05,-0.0001185,0.0005596,
1762845179451979466,1762845179.4519796,1762845179,450980217,1762845179.4509802,imu1_frame,-0.211734,-1.334219,-0.562581,0.312,-2.049,-7.482,8.14e-05,-0.0001104,0.0005468,
1762845179476715409,1762845179.4767156,1762845179,475336993,1762845179.475337,imu1_frame,-0.222351,-1.13784,0.027486,0.667,0.29,-14.043,0.0001022,-0.0001226,0.0005494,
1762845179500666727,1762845179.5006666,1762845179,500249519,1762845179.5002496,imu1_frame,0.100464,-0.331504,0.18289,-1.284,-2.065,-12.349,0.000109,-0.0001157,0.0005523,
1762845179535469288,1762845179.5354695,1762845179,533168706,1762845179.5331688,imu1_frame,0.397629,-1.126627,-0.300822,-1.568,-3.543,-7.03,0.0001168,-0.0001158,0.0005461,
1762845179551970360,1762845179.5519705,1762845179,551292652,1762845179.5512927,imu1_frame,0.060846,-0.997457,-0.364901,-0.213,0.375,-11.295,0.0001268,-0.00011600000000000001,0.0005412,
1762845179576921803,1762845179.576922,1762845179,576315845,1762845179.5763159,imu1_frame,-0.017088,-0.49321,0.063564,-0.44,1.106,-9.497,0.00013780000000000002,-0.0001209,0.0005485,
1762845179602394703,1762845179.6023948,1762845179,601409454,1762845179.6014094,imu1_frame,-0.333353,-0.175671,-0.045907,-0.779,-0.136,-11.226,0.0001477,-0.00012230000000000002,0.0005396999999999999,
1762845179627259770,1762845179.6272597,1762845179,626494646,1762845179.6264946,imu1_frame,-0.79903,-0.096019,0.39833,-0.953,0.449,-10.934,0.0001443,-0.0001258,0.0005449000000000001,
1762845179650913797,1762845179.650914,1762845179,650452505,1762845179.6504526,imu1_frame,-1.092747,0.299788,0.29688,-2.401,-4.231,-7.733,0.00013869999999999998,-0.0001304,0.0005407,
1762845179676913363,1762845179.6769135,1762845179,676514447,1762845179.6765144,imu1_frame,-1.099667,-0.296779,-0.131632,-1.951,-2.022,-10.781,0.0001451,-0.0001459,0.0005212,
1762845179701487972,1762845179.701488,1762845179,700884514,1762845179.7008846,imu1_frame,-0.272735,-0.100728,0.043292,-1.526,-0.054,-11.576,0.0001503,-0.0001614,0.000527,
1762845179726351456,1762845179.7263515,1762845179,725894415,1762845179.7258945,imu1_frame,-0.694152,0.101989,0.096399,-1.205,-0.95,-11.647,0.00014710000000000002,-0.0001542,0.0005306999999999999,
1762845179751111399,1762845179.7511115,1762845179,750269524,1762845179.7502694,imu1_frame,-1.246782,0.35727,-0.065301,-1.006,-0.754,-8.856,0.0001422,-0.0001766,0.0005187000000000001,
1762845179775883258,1762845179.7758834,1762845179,775580550,1762845179.7755806,imu1_frame,-0.825114,0.511887,-0.1316,-0.943,-2.38,-9.506,0.0001341,-0.000193,0.0005159,
1762845179802478532,1762845179.8024788,1762845179,801697366,1762845179.8016973,imu1_frame,-0.104082,0.110556,-0.456295,-0.548,-1.598,-7.551,0.0001332,-0.00018470000000000002,0.000521,
1762845179826464267,1762845179.8264644,1762845179,825748517,1762845179.8257484,imu1_frame,0.048684,0.014495,-0.345459,0.346,2.098,-9.13,0.0001398,-0.0001872,0.0005134,
1762845179852413875,1762845179.8524141,1762845179,851533542,1762845179.8515337,imu1_frame,-0.230939,0.232079,0.10427,0.617,1.981,-10.268,0.00013969999999999998,-0.0001943,0.0005148,
1762845179880930399,1762845179.8809304,1762845179,876881193,1762845179.8768811,imu1_frame,-0.390861,0.593146,0.286155,-0.095,0.162,-9.437,0.000134,-0.00020240000000000001,0.0005266,
1762845179902275135,1762845179.902275,1762845179,901586844,1762845179.9015868,imu1_frame,-0.191688,0.024854,0.102007,-0.288,-0.043,-5.816,0.0001317,-0.00020240000000000001,0.0005145,
1762845179927186244,1762845179.9271863,1762845179,926453703,1762845179.9264536,imu1_frame,0.137773,-0.198454,0.219865,0.2,-0.36,-9.854,0.0001274,-0.0001999,0.0005195999999999999,
1762845179952555936,1762845179.9525561,1762845179,951787061,1762845179.951787,imu1_frame,-0.131817,0.08296,0.318948,0.297,0.216,-11.012,0.0001265,-0.0001893,0.0005154,
1762845179976965837,1762845179.976966,1762845179,975911337,1762845179.9759114,imu1_frame,-0.323567,0.267649,0.243835,0.28,-1.717,-8.806,0.0001264,-0.000194,0.0005115,
1762845180003676903,1762845180.0036771,1762845180,2724987,1762845180.002725,imu1_frame,-0.080647,0.191589,0.135262,0.955,-0.441,-9.193,0.000125,-0.0002082,0.0005089000000000001,
1762845180026241597,1762845180.0262415,1762845180,25693597,1762845180.0256937,imu1_frame,0.142338,0.220852,0.108003,1.077,-0.507,-10.372,0.00011509999999999999,-0.0002021,0.0005217,
1762845180050787289,1762845180.0507874,1762845180,50142123,1762845180.050142,imu1_frame,-0.055935,0.297746,0.121976,1.106,0.197,-9.64,0.0001172,-0.0002092,0.0005112,
1762845180075365440,1762845180.0753655,1762845180,75051524,1762845180.0750515,imu1_frame,-0.222597,0.273154,0.128721,0.697,-1.585,-8.945,0.0001095,-0.0002067,0.0005107,
1762845180101262423,1762845180.1012623,1762845180,99837716,1762845180.0998378,imu1_frame,-0.117987,-0.148938,0.160879,0.794,-1.838,-10.058,0.00010960000000000001,-0.0001996,0.000512,
1762845180127516656,1762845180.1275167,1762845180,126015699,1762845180.1260157,imu1_frame,0.063903,0.060772,0.052432,0.862,0.083,-11.322,0.0001106,-0.0002067,0.0005068000000000001,
1762845180151550683,1762845180.1515508,1762845180,150939058,1762845180.150939,imu1_frame,-0.234262,0.19379,0.174815,0.736,0.077,-12.763,0.0001105,-0.00020910000000000001,0.0005068000000000001,
1762845180176781250,1762845180.1767814,1762845180,176361458,1762845180.1763616,imu1_frame,-0.228598,0.501627,0.126161,0.316,-0.855,-9.819,0.0001037,-0.00021840000000000002,0.0005226,
1762845180200941526,1762845180.2009416,1762845180,200599068,1762845180.200599,imu1_frame,-0.2168,0.348173,0.076239,0.142,-0.62,-9.22,9.82e-05,-0.0002171,0.0004983,
1762845180226312718,1762845180.2263129,1762845180,225705385,1762845180.2257054,imu1_frame,-0.146046,0.143205,0.033551,0.407,-0.179,-10.968,9.48e-05,-0.0002218,0.0005115,
1762845180250049744,1762845180.2500498,1762845180,249668786,1762845180.2496688,imu1_frame,-0.084896,0.495704,0.273773,0.763,2.518,-10.987,9.17e-05,-0.0002087,0.0005085,
1762845180275827353,1762845180.2758276,1762845180,275515769,1762845180.2755158,imu1_frame,-0.114403,0.668755,0.404381,0.46,1.021,-10.74,8.37e-05,-0.000218,0.0005055,
1762845180300496712,1762845180.3004968,1762845180,299894504,1762845180.2998946,imu1_frame,0.200554,0.232964,0.506718,-0.343,1.413,-7.458,7.59e-05,-0.0002238,0.0005039,
1762845180325954487,1762845180.3259547,1762845180,324841196,1762845180.3248413,imu1_frame,0.324874,-0.348416,0.702067,-0.572,-1.013,-10.874,7.14e-05,-0.00022250000000000001,0.0005183,
1762845180350221513,1762845180.3502216,1762845180,349829222,1762845180.3498292,imu1_frame,0.278129,-0.089514,0.552603,-0.615,-2.501,-12.34,7.170000000000001e-05,-0.0002095,0.0005128,
1762845180374866455,1762845180.3748665,1762845180,374641914,1762845180.374642,imu1_frame,-0.072462,0.187642,0.14907,-0.423,-2.498,-12.205,6.62e-05,-0.00020830000000000002,0.0005112,
1762845180401487522,1762845180.4014878,1762845180,399932064,1762845180.3999321,imu1_frame,-0.011431,0.195286,-0.129576,-0.169,-0.568,-10.626,6.4e-05,-0.000207,0.0005137000000000001,
1762845180425718589,1762845180.4257185,1762845180,425159131,1762845180.4251592,imu1_frame,0.194275,0.203986,-0.370906,-0.131,0.11,-10.138,6.610000000000001e-05,-0.0002118,0.0005059,
1762845180451622781,1762845180.4516227,1762845180,450965156,1762845180.4509652,imu1_frame,0.300362,0.227005,0.007278,0.521,4.367,-9.952,6.39e-05,-0.0002094,0.0005071,
1762845180476535848,1762845180.476536,1762845180,475430807,1762845180.4754307,imu1_frame,0.258817,0.30511,0.443695,0.245,1.378,-9.109,5.83e-05,-0.0002117,0.0005214999999999999,
1762845180501834207,1762845180.5018344,1762845180,500543041,1762845180.500543,imu1_frame,0.357021,0.090155,0.295206,-0.244,-0.993,-7.947,5.3e-05,-0.0001997,0.0005064,
1762845180526760774,1762845180.5267608,1762845180,526070108,1762845180.52607,imu1_frame,0.349736,-0.099281,-0.162981,-0.161,-2.407,-8.411,5.2900000000000005e-05,-0.00020449999999999998,0.0005225,
1762845180552348299,1762845180.5523486,1762845180,551530217,1762845180.5515301,imu1_frame,0.416184,-0.063127,-0.318851,0.625,1.764,-9.375,5.55e-05,-0.00018800000000000002,0.0005211,
1762845180576685617,1762845180.5766857,1762845180,575826451,1762845180.5758264,imu1_frame,0.216285,-0.0675,0.21048,1.313,1.325,-9.437,5.77e-05,-0.00019040000000000002,0.0005159,
1762845180600931185,1762845180.6009312,1762845180,600402935,1762845180.6004028,imu1_frame,-0.081118,0.102943,0.111037,1.245,-0.724,-8.74,5.76e-05,-0.0001951,0.0005172999999999999,
1762845180626194460,1762845180.6261945,1762845180,625641836,1762845180.6256418,imu1_frame,0.099236,-0.113135,0.036282,1.082,-0.726,-8.218,5.53e-05,-0.0001974,0.0005265,
1762845180651226027,1762845180.6512263,1762845180,650583611,1762845180.6505835,imu1_frame,0.116648,-0.203688,-0.114969,0.937,-0.939,-9.01,6.08e-05,-0.0001975,0.0005148,
1762845180676273178,1762845180.6762733,1762845180,675404304,1762845180.6754043,imu1_frame,0.038984,-0.186247,-0.058942,1.109,-0.336,-9.883,5.9900000000000006e-05,-0.00018690000000000002,0.0005145999999999999,
1762845180702693619,1762845180.7026937,1762845180,701383953,1762845180.701384,imu1_frame,-0.182273,-0.002634,0.086939,1.279,0.203,-9.102,6.33e-05,-0.00018570000000000001,0.0005188,
1762845180726181729,1762845180.7261817,1762845180,725144897,1762845180.7251449,imu1_frame,-0.160322,-0.074872,0.108775,1.205,-0.698,-8.39,6.1e-05,-0.0001916,0.0005147000000000001,
1762845180750590672,1762845180.7505908,1762845180,750053755,1762845180.7500536,imu1_frame,-0.029163,-0.246104,-0.013644,1.116,-1.142,-8.871,6.19e-05,-0.0001999,0.0005175,
1762845180775284489,1762845180.7752845,1762845180,774900448,1762845180.7749004,imu1_frame,-0.057422,-0.246646,-0.091448,1.256,-0.129,-10.328,6.53e-05,-0.0001988,0.0005283999999999999,
1762845180800527973,1762845180.800528,1762845180,799967723,1762845180.7999678,imu1_frame,-0.219446,-0.069607,0.036359,1.418,0.218,-10.707,7.21e-05,-0.0001906,0.0005126,
1762845180825419499,1762845180.8254197,1762845180,824917791,1762845180.8249178,imu1_frame,-0.295323,-0.039434,0.115176,1.531,0.737,-9.973,6.63e-05,-0.0002023,0.0005218000000000001,
1762845180850383441,1762845180.8503835,1762845180,849912649,1762845180.8499126,imu1_frame,-0.271621,-0.083428,-0.002077,1.496,-1.078,-9.627,6.769999999999999e-05,-0.00018820000000000002,0.000515,
1762845180876376424,1762845180.8763764,1762845180,875897466,1762845180.8758974,imu1_frame,-0.508371,-0.171171,0.079127,1.149,1.624,-9.988,7.190000000000001e-05,-0.00020130000000000001,0.0005114,
1762845180901327408,1762845180.9013274,1762845180,900585659,1762845180.9005857,imu1_frame,-0.309086,0.001192,0.144321,1.414,0.722,-10.374,7.159999999999999e-05,-0.0002131,0.0005089000000000001,
1762845180926433434,1762845180.9264336,1762845180,925641976,1762845180.925642,imu1_frame,-0.306362,-0.087774,0.362568,1.131,1.849,-10.306,7.04e-05,-0.000219,0.0005182,
1762845180951528334,1762845180.9515285,1762845180,950780960,1762845180.9507809,imu1_frame,-0.242237,-0.372358,0.540695,-0.514,-0.448,-9.462,6.93e-05,-0.00022009999999999998,0.0005034999999999999,
1762845180978138692,1762845180.9781387,1762845180,977196068,1762845180.977196,imu1_frame,-0.168056,-0.493033,0.193822,-1.157,-2.697,-13.365,7.149999999999999e-05,-0.0002202,0.0005076000000000001,
1762845181001511094,1762845181.0015113,1762845181,790969,1762845181.000791,imu1_frame,0.204556,0.006138,-0.182315,-0.447,-0.587,-15.463,7.5e-05,-0.0002108,0.0005063,
1762845181027520535,1762845181.0275207,1762845181,26974952,1762845181.026975,imu1_frame,-0.164754,0.414732,-0.262022,1.075,1.767,-13.351,8.05e-05,-0.0002121,0.000504,
1762845181051380936,1762845181.051381,1762845181,50712770,1762845181.0507128,imu1_frame,-0.004688,0.327748,-0.129994,1.631,1.626,-9.228,7.26e-05,-0.0002226,0.000497,
1762845181076195420,1762845181.0761955,1762845181,75479088,1762845181.075479,imu1_frame,0.38408,0.040529,-0.27465,1.759,0.381,-8.796,7.149999999999999e-05,-0.0002178,0.0005116000000000001,
1762845181102554320,1762845181.1025546,1762845181,101789779,1762845181.1017897,imu1_frame,0.450852,-0.160572,-0.319284,0.978,0.101,-8.069,7.59e-05,-0.0002203,0.0005038,
1762845181128343429,1762845181.1283436,1762845181,126736180,1762845181.1267362,imu1_frame,0.168903,0.160741,0.094057,0.322,1.451,-11.185,7.829999999999999e-05,-0.000212,0.0005132,
1762845181152258288,1762845181.1522584,1762845181,151532205,1762845181.1515322,imu1_frame,-0.208553,0.367847,0.289242,-1.278,-0.852,-8.701,7.07e-05,-0.00020240000000000001,0.0005087000000000001,
1762845181178211938,1762845181.178212,1762845181,176924397,1762845181.1769245,imu1_frame,0.033333,-0.015347,0.144794,-1.92,-2.384,-9.603,7.180000000000001e-05,-0.00020480000000000002,0.0005074,
1762845181201685590,1762845181.2016857,1762845181,200898965,1762845181.200899,imu1_frame,0.325075,-0.096079,-0.023911,-1.779,-3.009,-11.195,6.950000000000001e-05,-0.0002095,0.0005047000000000001,
1762845181227708448,1762845181.2277086,1762845181,226612657,1762845181.2266126,imu1_frame,-0.070437,0.217442,-0.069785,-0.593,0.473,-12.256,6.94e-05,-0.0002142,0.0005234,
1762845181252367099,1762845181.2523673,1762845181,251548308,1762845181.2515483,imu1_frame,-0.31197,0.410404,0.017916,0.43,-0.743,-8.507,6.83e-05,-0.0002118,0.00051,
1762845181277567332,1762845181.2775674,1762845181,276699416,1762845181.2766993,imu1_frame,-0.082095,0.080811,-0.135653,0.937,-0.373,-6.551,6.49e-05,-0.0002153,0.0005152000000000001,
1762845181301984358,1762845181.3019843,1762845181,301390359,1762845181.3013904,imu1_frame,0.262245,-0.30164,-0.204051,1.042,-0.596,-8.546,6.74e-05,-0.00020349999999999999,0.0005085,
1762845181327424842,1762845181.3274248,1762845181,326367843,1762845181.3263679,imu1_frame,0.253166,-0.128966,-0.185864,1.162,1.348,-10.757,7.51e-05,-0.0002084,0.0005103,
1762845181351806285,1762845181.3518064,1762845181,351264035,1762845181.351264,imu1_frame,-0.019756,0.240527,0.064975,1.055,0.901,-10.074,7.280000000000001e-05,-0.00020960000000000003,0.0005074999999999999,
1762845181375599019,1762845181.3755991,1762845181,375103353,1762845181.3751032,imu1_frame,0.040857,0.276473,0.200696,0.895,-0.418,-8.476,6.610000000000001e-05,-0.0002118,0.0005232,
1762845181400208962,1762845181.400209,1762845181,399806379,1762845181.3998063,imu1_frame,0.28955,-0.007575,0.046236,0.82,-1.956,-8.874,6.29e-05,-0.0002046,0.0005082999999999999,
1762845181425927237,1762845181.4259272,1762845181,425621612,1762845181.4256215,imu1_frame,0.253569,0.046025,-0.147544,0.962,-1.456,-10.708,6.3e-05,-0.0002011,0.0005189000000000001,
1762845181450801888,1762845181.450802,1762845181,450560471,1762845181.4505606,imu1_frame,0.05345,0.431323,0.118086,1.073,0.265,-11.608,5.9800000000000003e-05,-0.0001939,0.0005187000000000001,
1762845181476820412,1762845181.4768207,1762845181,476319371,1762845181.4763193,imu1_frame,-0.13473,0.676048,0.20621,0.562,-1.608,-10.315,5.55e-05,-0.0001868,0.0005117,
1762845181501752646,1762845181.5017526,1762845181,501219522,1762845181.5012195,imu1_frame,-0.122257,0.34556,0.097597,0.306,-1.691,-9.37,4.85e-05,-0.0002067,0.0005169,
1762845181526676089,1762845181.5266762,1762845181,525760089,1762845181.5257602,imu1_frame,-0.099693,0.359433,-0.16157,0.878,-1.77,-10.806,4.41e-05,-0.0002007,0.0005273,
1762845181552709822,1762845181.55271,1762845181,551732406,1762845181.5517323,imu1_frame,-0.132968,0.439029,-0.018505,1.323,1.355,-9.04,4.39e-05,-0.00021490000000000002,0.0005128,
1762845181577333348,1762845181.5773335,1762845181,576677015,1762845181.576677,imu1_frame,-0.037969,0.249696,0.468701,1.413,2.142,-7.699,3.29e-05,-0.0002064,0.0005201,
1762845181601804624,1762845181.6018047,1762845181,600558624,1762845181.6005585,imu1_frame,0.167765,-0.199851,0.93467,0.686,-0.64,-8.19,2.77e-05,-0.000191,0.000513,
1762845181626579399,1762845181.6265795,1762845181,625887525,1762845181.6258876,imu1_frame,0.135171,-0.394662,0.798052,-0.09,-3.246,-11.22,3.1e-05,-0.0001899,0.0005051,
1762845181652745257,1762845181.6527452,1762845181,651608633,1762845181.6516087,imu1_frame,-0.006144,-0.184792,0.329503,-0.15,-3.83,-14.013,3.3e-05,-0.0002053,0.0005174,
1762845181679475407,1762845181.6794755,1762845181,678191824,1762845181.678192,imu1_frame,-0.320737,0.261094,0.009657,-0.009,-1.522,-12.288,2.88e-05,-0.00019339999999999998,0.0005157,
1762845181702670017,1762845181.70267,1762845181,701713768,1762845181.7017138,imu1_frame,-0.093292,0.151654,-0.244861,-0.04,-0.389,-8.882,2.7300000000000003e-05,-0.0002111,0.0005052,
1762845181729647333,1762845181.7296474,1762845181,726620418,1762845181.7266204,imu1_frame,0.495148,-0.068143,-0.355646,0.421,1.574,-9.08,2.6300000000000002e-05,-0.0002075,0.0005185,
1762845181752668401,1762845181.7526686,1762845181,751947069,1762845181.7519472,imu1_frame,0.559462,-0.134818,-0.060617,0.667,3.621,-8.883,3.1e-05,-0.000191,0.0005158000000000001,
1762845181776534636,1762845181.7765346,1762845181,775932636,1762845181.7759326,imu1_frame,0.348002,-0.062666,0.436519,0.519,1.216,-10.02,3.1e-05,-0.00019339999999999998,0.0005092,
1762845181801543453,1762845181.8015435,1762845181,800416954,1762845181.800417,imu1_frame,0.260076,0.090301,0.176283,0.431,-1.535,-9.801,2.77e-05,-0.0001922,0.0005143,
1762845181827224562,1762845181.8272247,1762845181,826364729,1762845181.8263648,imu1_frame,0.309172,0.02655,-0.199701,0.887,-2.043,-9.028,2.9000000000000004e-05,-0.0001827,0.0005250000000000001,
1762845181852846379,1762845181.8528464,1762845181,851778171,1762845181.8517783,imu1_frame,0.217041,0.04633,-0.456714,1.549,-0.57,-9.188,3e-05,-0.0001875,0.0005184,
1762845181880624694,1762845181.8806248,1762845181,879565695,1762845181.8795657,imu1_frame,0.264289,0.219187,-0.195871,2.08,1.472,-8.227,2.88e-05,-0.0001886,0.0005264,
1762845181903859887,1762845181.90386,1762845181,901566722,1762845181.9015667,imu1_frame,0.226885,0.050952,-0.036748,2.154,-0.568,-7.838,2.58e-05,-0.0001756,0.0005261,
1762845181927152872,1762845181.927153,1762845181,926555248,1762845181.9265552,imu1_frame,0.15373,-0.037449,-0.190768,1.943,-1.166,-8.116,2.93e-05,-0.000165,0.0005141,
1762845181951488940,1762845181.9514892,1762845181,951065774,1762845181.9510658,imu1_frame,0.025728,-0.103582,-0.225083,1.744,-0.68,-9.126,3.2200000000000003e-05,-0.0001852,0.0005225,
1762845181976507382,1762845181.9765074,1762845181,975864424,1762845181.9758644,imu1_frame,0.090679,0.171269,-0.050953,1.856,0.261,-10.85,3.0200000000000002e-05,-0.00017680000000000001,0.000537,
1762845182001178450,1762845182.0011785,1762845181,999992159,1762845181.9999921,imu1_frame,0.022697,0.232858,0.11974,2.004,-0.885,-9.461,3.2300000000000006e-05,-0.00018040000000000002,0.0005225,
1762845182026872933,1762845182.0268729,1762845182,26236642,1762845182.0262365,imu1_frame,0.024492,0.191471,-0.09092,2.033,-2.172,-8.983,2.57e-05,-0.0001803,0.0005288000000000001,
1762845182055814831,1762845182.055815,1762845182,55189082,1762845182.0551891,imu1_frame,0.131851,0.080634,-0.248399,1.996,-1.831,-8.99,2.58e-05,-0.0001744,0.0005327,
1762845182076962068,1762845182.0769622,1762845182,76303318,1762845182.0763032,imu1_frame,0.199234,0.063872,-0.022023,1.949,0.578,-11.124,2.58e-05,-0.0001756,0.0005287,
1762845182102118093,1762845182.1021183,1762845182,101505843,1762845182.1015058,imu1_frame,0.069866,0.34085,0.02708,1.763,-0.993,-11.291,2.68e-05,-0.0001815,0.0005275,
1762845182128565284,1762845182.1285653,1762845182,127474035,1762845182.127474,imu1_frame,0.070818,0.222321,-0.061021,1.631,-2.405,-9.114,1.9e-05,-0.00018140000000000002,0.0005471,
1762845182152748519,1762845182.1527486,1762845182,151986728,1762845182.1519868,imu1_frame,0.027686,-0.141176,-0.05744,1.215,-1.199,-8.577,2.02e-05,-0.0001767,0.0005258000000000001,
1762845182177863544,1762845182.1778636,1762845182,177174753,1762845182.1771748,imu1_frame,0.010952,-0.228046,-0.029988,0.665,-0.9,-13.184,2.34e-05,-0.00018140000000000002,0.0005367,
1762845182203351653,1762845182.2033517,1762845182,202481112,1762845182.202481,imu1_frame,-0.190736,0.024058,-0.131452,0.176,-2.728,-12.616,2.26e-05,-0.0001672,0.0005351,
1762845182227096388,1762845182.2270963,1762845182,226186888,1762845182.226187,imu1_frame,-0.427435,0.275796,-0.462353,0.605,-1.479,-11.458,2.24e-05,-0.00018020000000000002,0.0005233,
1762845182251855955,1762845182.251856,1762845182,251296789,1762845182.2512968,imu1_frame,-0.462621,0.133304,-0.460984,1.307,0.696,-9.181,2.3199999999999998e-05,-0.00019439999999999998,0.0005302,
1762845182277113647,1762845182.2771137,1762845182,276392148,1762845182.2763922,imu1_frame,-0.138643,-0.099604,-0.278301,1.137,0.351,-8.835,2.09e-05,-0.00019910000000000001,0.0005381,
1762845182300983507,1762845182.3009837,1762845182,300457424,1762845182.3004575,imu1_frame,0.279948,-0.209205,0.098743,0.394,1.652,-9.92,3.09e-05,-0.0001946,0.0005252,
1762845182326251657,1762845182.326252,1762845182,325569366,1762845182.3255694,imu1_frame,0.088467,-0.260042,0.204166,-0.447,-0.865,-11.141,3e-05,-0.0001887,0.0005318,
1762845182352746723,1762845182.352747,1762845182,351795141,1762845182.3517952,imu1_frame,-0.090678,-0.100699,0.052918,-0.747,-2.745,-10.117,3.12e-05,-0.0001828,0.0005278,
1762845182379967081,1762845182.379967,1762845182,378741290,1762845182.3787413,imu1_frame,-0.164961,-0.183652,-0.214081,-0.189,-3.18,-9.832,3.33e-05,-0.0001875,0.0005213,
1762845182402427566,1762845182.4024277,1762845182,401115859,1762845182.401116,imu1_frame,-0.046066,-0.079865,-0.413901,0.819,-0.444,-10.22,3.7699999999999995e-05,-0.00019,0.0005228,
1762845182428373258,1762845182.4283733,1762845182,427409050,1762845182.427409,imu1_frame,0.007523,0.061993,-0.190691,1.231,0.445,-9.446,3.87e-05,-0.00019470000000000002,0.0005323,
1762845182451122243,1762845182.4511223,1762845182,450642119,1762845182.450642,imu1_frame,-0.001803,0.11618,-0.108615,0.873,-1.158,-8.378,3.7800000000000004e-05,-0.0001853,0.0005214999999999999,
1762845182476897685,1762845182.476898,1762845182,475611519,1762845182.4756114,imu1_frame,0.0354,-0.000401,-0.159895,0.785,-1.531,-8.288,3.7800000000000004e-05,-0.0001853,0.0005268,
1762845182501459003,1762845182.5014591,1762845182,500943045,1762845182.500943,imu1_frame,0.075873,0.034751,-0.198759,0.887,-1.678,-8.885,3.7800000000000004e-05,-0.0001853,0.0005268,
1762845182527137944,1762845182.5271382,1762845182,526277570,1762845182.5262775,imu1_frame,0.045879,0.131367,-0.163001,0.94,-1.387,-8.499,4.23e-05,-0.0001818,0.0005176,
1762845182551327554,1762845182.5513277,1762845182,550510263,1762845182.5505102,imu1_frame,0.079952,0.129432,-0.058566,1.096,-1.441,-7.771,3.99e-05,-0.0001912,0.0005283,
1762845182577065704,1762845182.577066,1762845182,576070121,1762845182.57607,imu1_frame,0.131533,0.039813,-0.077467,1.323,-2.197,-7.39,3.68e-05,-0.000177,0.0005373,
1762845182602444271,1762845182.6024444,1762845182,601545938,1762845182.601546,imu1_frame,0.161873,-0.083957,-0.163691,1.638,-2.008,-8.379,4.01e-05,-0.00018060000000000003,0.0005254999999999999,
1762845182626393047,1762845182.626393,1762845182,625578839,1762845182.6255789,imu1_frame,0.216124,-0.129522,-0.169485,1.802,-1.543,-9.963,4.1099999999999996e-05,-0.00018410000000000003,0.000535,
1762845182651507448,1762845182.6515076,1762845182,650358865,1762845182.650359,imu1_frame,0.022917,0.073913,-0.02964,2.01,-0.365,-10.764,4.25e-05,-0.0001688,0.0005308000000000001,
1762845182676110015,1762845182.6761103,1762845182,675699765,1762845182.6756997,imu1_frame,-0.285363,0.282368,0.080015,1.648,-1.815,-10.973,4.1400000000000003e-05,-0.00017,0.0005281,
1762845182700875957,1762845182.7008762,1762845182,700176000,1762845182.700176,imu1_frame,-0.176894,0.274316,-0.092627,1.277,-2.632,-10.184,3.56e-05,-0.0001817,0.000528,
1762845182726509316,1762845182.7265093,1762845182,725924483,1762845182.7259245,imu1_frame,-0.054573,0.222051,-0.139102,1.466,-1.075,-10.305,3.24e-05,-0.0001792,0.0005278,
1762845182751730091,1762845182.7517302,1762845182,751051425,1762845182.7510514,imu1_frame,-0.093171,0.315151,0.086155,1.881,0.463,-10.579,3e-05,-0.0001887,0.0005278,
1762845182775729451,1762845182.7757294,1762845182,775264410,1762845182.7752645,imu1_frame,-0.008099,0.254598,0.557021,1.628,1.012,-9.611,2.4400000000000004e-05,-0.00019089999999999998,0.0005394999999999999,
1762845182801503434,1762845182.8015037,1762845182,800912393,1762845182.8009124,imu1_frame,0.138349,-0.126717,0.662504,0.974,-2.095,-9.272,2.02e-05,-0.000179,0.0005338000000000001,
1762845182826229877,1762845182.8262298,1762845182,825808752,1762845182.8258088,imu1_frame,0.258729,-0.40977,0.581642,0.214,-3.45,-11.456,2.57e-05,-0.00017910000000000002,0.0005288000000000001,
1762845182850884403,1762845182.8508844,1762845182,850147945,1762845182.850148,imu1_frame,-0.074518,-0.110238,0.333725,-0.11,-3.337,-13.881,2.24e-05,-0.00017910000000000002,0.0005246,
1762845182877304552,1762845182.8773048,1762845182,876591511,1762845182.8765914,imu1_frame,-0.438545,0.312219,0.101737,-0.348,-1.83,-13.2,1.8900000000000002e-05,-0.00018490000000000002,0.0005405,
1762845182901936245,1762845182.9019363,1762845182,901306995,1762845182.901307,imu1_frame,-0.300183,0.342256,-0.111181,-0.359,-0.548,-10.7,1.76e-05,-0.0001967,0.0005259,
1762845182927271353,1762845182.9272716,1762845182,926181854,1762845182.9261818,imu1_frame,0.235033,-0.03797,-0.186446,0.087,0.923,-8.922,1.65e-05,-0.0001943,0.0005311000000000001,
1762845182950930171,1762845182.9509304,1762845182,950495797,1762845182.9504957,imu1_frame,0.332272,-0.104336,-0.045587,0.903,2.566,-9.543,1.78e-05,-0.00018490000000000002,0.0005338000000000001,
1762845182976066697,1762845182.9760668,1762845182,975652447,1762845182.9756525,imu1_frame,0.132421,-0.159539,0.371128,1.046,1.767,-8.929,2.12e-05,-0.00018490000000000002,0.0005246,
1762845183001219264,1762845183.0012195,1762845183,700556,1762845183.0007005,imu1_frame,0.135455,-0.117094,0.387472,0.824,-1.11,-8.66,1.88e-05,-0.0001896,0.0005285,
1762845183026168540,1762845183.0261686,1762845183,25722165,1762845183.0257223,imu1_frame,0.307144,-0.215125,0.214641,0.988,-2.533,-8.609,1.92e-05,-0.00016950000000000003,0.0005377,
1762845183050114691,1762845183.0501149,1762845183,49749858,1762845183.0497499,imu1_frame,0.253164,-0.167529,0.031352,1.579,-1.878,-9.376,2.13e-05,-0.00017549999999999998,0.0005298000000000001,
1762845183075414300,1762845183.0754144,1762845183,74941842,1762845183.0749419,imu1_frame,0.044917,-0.008588,-0.110892,1.934,-1.287,-9.572,2.26e-05,-0.0001684,0.0005338000000000001,
1762845183102699449,1762845183.1026995,1762845183,101578158,1762845183.1015782,imu1_frame,-0.047223,0.087686,-0.02541,2.157,-0.521,-9.174,2.26e-05,-0.0001672,0.0005365,
1762845183127436308,1762845183.1274364,1762845183,126390017,1762845183.12639,imu1_frame,0.000691,0.061638,0.015011,1.744,-1.194,-8.591,2.37e-05,-0.0001661,0.0005258000000000001,
1762845183152334083,1762845183.1523342,1762845183,151475876,1762845183.151476,imu1_frame,0.081718,-0.006385,-0.054705,1.359,-1.98,-8.78,2.37e-05,-0.0001684,0.0005272,
1762845183176125276,1762845183.1761253,1762845183,175281527,1762845183.1752815,imu1_frame,0.060856,0.111106,-0.149386,1.637,-1.007,-9.57,1.92e-05,-0.0001719,0.0005430000000000001,
1762845183201299344,1762845183.2012997,1762845183,200694594,1762845183.2006946,imu1_frame,-0.081626,0.195914,-0.084116,1.953,-0.073,-8.883,2.2499999999999998e-05,-0.0001731,0.0005299,
1762845183226403536,1762845183.2264037,1762845183,225824078,1762845183.225824,imu1_frame,-0.033055,0.131921,-0.008997,2.044,-0.921,-8.22,1.68e-05,-0.000179,0.0005403,
1762845183254671726,1762845183.2546718,1762845183,250222062,1762845183.250222,imu1_frame,0.105295,-0.034553,-0.051537,1.82,-1.469,-8.298,1.94e-05,-0.0001624,0.0005349,
1762845183276133587,1762845183.2761338,1762845183,275456421,1762845183.2754564,imu1_frame,0.119029,-0.113238,-0.108862,1.662,-1.972,-9.291,2.06e-05,-0.0001589,0.0005296,
1762845183301827695,1762845183.3018277,1762845183,300975946,1762845183.300976,imu1_frame,-0.001177,0.021035,-0.091986,1.966,-1.207,-10.409,2.14e-05,-0.0001743,0.0005258000000000001,
1762845183326359513,1762845183.3263597,1762845183,325901847,1762845183.3259017,imu1_frame,-0.112018,0.08908,0.006497,2.023,-1.18,-10.004,1.8e-05,-0.0001778,0.0005444,
1762845183350932122,1762845183.3509324,1762845183,350641789,1762845183.3506417,imu1_frame,-0.042171,-0.013492,0.060305,1.567,-1.598,-9.815,1.91e-05,-0.0001766,0.0005324,
1762845183375895023,1762845183.3758953,1762845183,375265773,1762845183.3752658,imu1_frame,0.024322,-0.040075,-0.040086,1.54,-2.407,-11.625,1.6899999999999997e-05,-0.0001742,0.0005363,
1762845183401696673,1762845183.401697,1762845183,401103757,1762845183.4011037,imu1_frame,0.012362,0.141652,-0.171333,2.16,-1.343,-10.777,1.8100000000000003e-05,-0.0001683,0.0005415999999999999,
1762845183426327907,1762845183.426328,1762845183,425719241,1762845183.4257193,imu1_frame,-0.044384,0.124775,-0.117257,2.946,-0.021,-8.573,2.05e-05,-0.0001601,0.0005256,
1762845183450698266,1762845183.4506984,1762845183,450461475,1762845183.4504614,imu1_frame,-0.098137,-0.218317,0.222159,2.549,-0.038,-8.891,1.8e-05,-0.0001754,0.000527,
1762845183476359000,1762845183.4763591,1762845183,475920792,1762845183.4759207,imu1_frame,0.003391,-0.603309,0.278619,0.587,-2.144,-10.946,2.02e-05,-0.00017549999999999998,0.0005445,
1762845183501092025,1762845183.5010922,1762845183,500507818,1762845183.5005078,imu1_frame,-0.78771,-0.544875,0.239422,-0.392,-2.062,-15.079,2.57e-05,-0.0001803,0.0005274,
1762845183528610299,1762845183.5286105,1762845183,527816342,1762845183.5278163,imu1_frame,-0.512092,0.251818,-0.204519,-0.386,-4.149,-14.878,2.7799999999999998e-05,-0.0001851,0.000537,
1762845183553952658,1762845183.553953,1762845183,552290993,1762845183.552291,imu1_frame,-0.539721,0.434264,-0.635294,0.667,-0.795,-10.499,2.79e-05,-0.0001827,0.0005343,
1762845183576698768,1762845183.576699,1762845183,576097019,1762845183.576097,imu1_frame,-0.246953,0.281179,-0.600932,1.215,0.163,-8.016,3e-05,-0.0001875,0.0005251,
1762845183602347835,1762845183.6023479,1762845183,601634627,1762845183.6016347,imu1_frame,0.122018,0.00826,-0.504043,0.919,0.542,-7.744,2.9900000000000002e-05,-0.0001922,0.0005238,
1762845183626690236,1762845183.6266904,1762845183,625917862,1762845183.625918,imu1_frame,0.229946,-0.052534,-0.265802,0.551,1.135,-8.349,3e-05,-0.0001887,0.0005291,
1762845183651753053,1762845183.6517532,1762845183,650952304,1762845183.6509523,imu1_frame,0.074137,-0.069812,-0.015095,0.149,0.005,-9.078,2.98e-05,-0.0001946,0.0005198000000000001,
1762845183677679870,1762845183.67768,1762845183,676692662,1762845183.6766927,imu1_frame,0.002302,0.006281,0.037527,-0.162,-1.951,-9.32,2.88e-05,-0.0001922,0.0005277,
1762845183704422395,1762845183.7044225,1762845183,703516353,1762845183.7035162,imu1_frame,-0.022672,0.043126,-0.198643,0.123,-2.588,-9.447,3.2500000000000004e-05,-0.0001733,0.0005264,
1762845183727297713,1762845183.7272978,1762845183,726723047,1762845183.726723,imu1_frame,0.003277,0.098227,-0.374587,0.869,-1.35,-9.314,3.44e-05,-0.0001864,0.000524,
1762845183751119948,1762845183.75112,1762845183,750620865,1762845183.7506208,imu1_frame,0.076088,0.095341,-0.256704,1.532,0.542,-8.24,3.7699999999999995e-05,-0.00019,0.0005295,
1762845183775445057,1762845183.775445,1762845183,775030266,1762845183.7750304,imu1_frame,0.105744,-0.004815,0.089273,1.781,-0.09,-8.627,3.33e-05,-0.0001899,0.0005413,
1762845183800925832,1762845183.800926,1762845183,800602416,1762845183.8006024,imu1_frame,0.131157,-0.033487,0.030054,1.532,-1.875,-9.208,3.57e-05,-0.00017810000000000002,0.0005279000000000001,
1762845183825918900,1762845183.8259192,1762845183,825562525,1762845183.8255625,imu1_frame,0.001357,0.029937,-0.086096,1.508,-1.464,-9.536,3.4500000000000005e-05,-0.0001852,0.0005333,
1762845183851502758,1762845183.851503,1762845183,851111467,1762845183.8511114,imu1_frame,-0.094338,0.119662,-0.123916,1.694,-1.248,-9.332,3.24e-05,-0.00017690000000000002,0.0005344,
1762845183876600784,1762845183.876601,1762845183,875970326,1762845183.8759704,imu1_frame,-0.094917,0.130802,-0.029133,2.107,-1.059,-9.082,3.33e-05,-0.0001864,0.0005239,
1762845183903359683,1762845183.90336,1762845183,902759517,1762845183.9027596,imu1_frame,-0.11788,0.138901,0.024651,2.433,-0.932,-8.753,3.13e-05,-0.000178,0.0005237000000000001,
1762845183926452460,1762845183.9264526,1762845183,925772960,1762845183.925773,imu1_frame,-0.051786,0.062962,0.075841,2.389,-0.994,-8.443,2.76e-05,-0.0001933,0.0005384,
1762845183951771694,1762845183.9517717,1762845183,951079944,1762845183.9510798,imu1_frame,0.018897,-0.034236,0.083663,2.085,-1.76,-8.688,3e-05,-0.0001887,0.0005291,
1762845183976564928,1762845183.9765651,1762845183,976067428,1762845183.9760675,imu1_frame,-0.004184,0.02404,0.092579,1.663,-1.455,-10.489,2.66e-05,-0.0001898,0.0005383,
1762845184001467078,1762845184.0014672,1762845184,513246,1762845184.0005133,imu1_frame,-0.141799,0.197259,0.131973,1.185,-1.428,-10.679,2.5600000000000002e-05,-0.000185,0.0005342,
1762845184026264229,1762845184.0262644,1762845184,25538396,1762845184.0255384,imu1_frame,-0.17577,0.255894,0.088436,1.05,-1.91,-10.433,2.5600000000000002e-05,-0.0001862,0.0005288000000000001,
1762845184051555004,1762845184.0515552,1762845184,50997963,1762845184.050998,imu1_frame,-0.230871,0.264125,-0.037091,1.538,-1.386,-10.872,2.09e-05,-0.0001968,0.0005261,
1762845184077355488,1762845184.0773556,1762845184,76531697,1762845184.0765316,imu1_frame,-0.244742,0.319944,-0.114554,2.03,-0.41,-10.812,1.77e-05,-0.0001896,0.0005285,
1762845184103279471,1762845184.1032794,1762845184,102563055,1762845184.1025631,imu1_frame,-0.178415,0.254609,-0.017945,2.107,1.121,-9.574,1.7500000000000002e-05,-0.00020380000000000002,0.0005233,
1762845184127449539,1762845184.1274498,1762845184,126813956,1762845184.126814,imu1_frame,0.077526,-0.088867,0.402472,2.041,2.324,-9.482,1.0800000000000002e-05,-0.00020250000000000002,0.0005309000000000001,
1762845184150989399,1762845184.1509895,1762845184,150410357,1762845184.1504104,imu1_frame,0.237387,-0.179901,0.803629,1.893,-0.405,-9.932,1e-05,-0.0001871,0.0005294,
1762845184187386167,1762845184.1873863,1762845184,177176882,1762845184.177177,imu1_frame,0.100729,-0.237986,0.652902,1.118,-3.181,-10.894,1.12e-05,-0.00018240000000000002,0.0005254,
1762845184200957991,1762845184.200958,1762845184,200592908,1762845184.200593,imu1_frame,-0.220522,-0.086342,0.211732,0.173,-4.695,-10.407,8.7e-06,-0.0001989,0.0005268,
1762845184229123932,1762845184.2291238,1762845184,228486640,1762845184.2284865,imu1_frame,-0.081448,-0.186226,-0.245484,-0.014,-1.791,-10.772,1.2200000000000002e-05,-0.0001895,0.0005282,
1762845184252353583,1762845184.2523537,1762845184,251588792,1762845184.2515888,imu1_frame,0.101358,-0.097793,0.008764,0.458,1.331,-11.347,1.54e-05,-0.0001943,0.0005151,
1762845184278861983,1762845184.2788622,1762845184,276428110,1762845184.2764282,imu1_frame,0.224705,-0.043251,0.042552,1.003,0.274,-10.253,1.11e-05,-0.0001883,0.0005281,
1762845184303576967,1762845184.3035772,1762845184,302246301,1762845184.3022463,imu1_frame,0.31515,-0.061851,-0.023692,1.435,0.67,-8.973,1.4500000000000002e-05,-0.0001848,0.0005323,
1762845184327408327,1762845184.3274086,1762845184,326743077,1762845184.3267431,imu1_frame,0.297189,-0.155552,-0.118719,1.596,-0.671,-8.172,1.56e-05,-0.0001837,0.0005283,
1762845184351517603,1762845184.351518,1762845184,350892395,1762845184.3508923,imu1_frame,0.283277,-0.182175,-0.271458,1.777,-0.781,-8.329,1.77e-05,-0.0001896,0.0005271000000000001,
1762845184375654587,1762845184.3756547,1762845184,375465462,1762845184.3754654,imu1_frame,0.255757,-0.117122,-0.16701,2.056,1.546,-8.597,2e-05,-0.0001897,0.0005446,
1762845184400774613,1762845184.4007747,1762845184,400450405,1762845184.4004505,imu1_frame,0.192804,-0.051794,0.054204,2.11,-0.441,-8.974,2.12e-05,-0.00018490000000000002,0.0005259,
1762845184428423053,1762845184.4284232,1762845184,426866721,1762845184.4268668,imu1_frame,0.228071,-0.081323,-0.050807,1.958,-1.275,-8.378,2.24e-05,-0.00017790000000000001,0.0005339,
1762845184455799619,1762845184.4557996,1762845184,454754828,1762845184.4547548,imu1_frame,0.256136,-0.16699,-0.144279,1.804,-1.237,-8.738,2.26e-05,-0.0001661,0.0005391,
1762845184478302605,1762845184.4783027,1762845184,477610772,1762845184.4776108,imu1_frame,0.089879,0.006843,-0.099058,1.915,-0.262,-9.842,2.48e-05,-0.0001685,0.0005313,
1762845184501034465,1762845184.5010345,1762845184,500419632,1762845184.5004196,imu1_frame,-0.078713,0.106746,-0.104679,1.93,-0.641,-8.831,2.57e-05,-0.00017790000000000001,0.0005341,
1762845184526293657,1762845184.5262938,1762845184,525691574,1762845184.5256915,imu1_frame,0.015488,-0.029084,-0.048181,2.179,-1.154,-8.415,2.36e-05,-0.0001708,0.0005459000000000001,
1762845184553578348,1762845184.5535784,1762845184,551315349,1762845184.5513153,imu1_frame,0.096994,-0.094343,-0.219379,2.372,-1.356,-8.714,2.7099999999999998e-05,-0.000165,0.0005353000000000001,
1762845184576334541,1762845184.5763347,1762845184,575814333,1762845184.5758142,imu1_frame,0.10534,-0.159099,-0.23287,2.72,0.124,-9.879,2.9100000000000003e-05,-0.0001756,0.0005396,
1762845184601433484,1762845184.6014338,1762845184,600931401,1762845184.6009314,imu1_frame,0.032403,0.006601,-0.054016,2.764,0.249,-10.87,3.16e-05,-0.0001615,0.0005449000000000001,
1762845184626221384,1762845184.6262214,1762845184,625561218,1762845184.6255612,imu1_frame,-0.154293,0.158421,-0.015103,2.262,-0.661,-10.951,3.37e-05,-0.0001674,0.0005384,
1762845184651047118,1762845184.6510472,1762845184,650596952,1762845184.6505969,imu1_frame,-0.101493,0.175925,-0.109445,1.859,-1.749,-10.331,3.13e-05,-0.00017690000000000002,0.0005357,
1762845184676045352,1762845184.6760454,1762845184,675651227,1762845184.6756513,imu1_frame,-0.049419,0.093731,-0.195595,1.686,-1.299,-10.416,2.5600000000000002e-05,-0.0001827,0.0005502,
1762845184701556752,1762845184.701557,1762845184,701053378,1762845184.7010534,imu1_frame,-0.068319,0.130232,-0.184244,2.044,-0.109,-10.528,2.9000000000000004e-05,-0.00018040000000000002,0.0005383,
1762845184737750312,1762845184.7377503,1762845184,737083605,1762845184.7370837,imu1_frame,-0.210705,0.01704,0.061,2.008,0.418,-8.985,2.46e-05,-0.00017790000000000001,0.0005434,
1762845184750194221,1762845184.7501943,1762845184,749827930,1762845184.7498279,imu1_frame,-0.088629,-0.290289,0.248351,1.371,-1.073,-9.323,2.8100000000000002e-05,-0.0001721,0.0005341,
1762845184776362621,1762845184.7763627,1762845184,775982496,1762845184.7759824,imu1_frame,0.031448,-0.5917,0.267359,0.306,-2.46,-11.32,3.12e-05,-0.0001792,0.0005344,
1762845184803601312,1762845184.8036015,1762845184,801641563,1762845184.8016415,imu1_frame,-0.872805,-0.35837,0.131592,0.202,-2.259,-13.69,3.56e-05,-0.0001829,0.000528,
1762845184826895338,1762845184.8268955,1762845184,826301172,1762845184.826301,imu1_frame,-0.316988,0.189452,-0.332555,0.083,-3.463,-13.081,3.68e-05,-0.0001793,0.0005386999999999999,
1762845184851950489,1762845184.8519506,1762845184,851256489,1762845184.8512564,imu1_frame,-0.318737,0.291766,-0.572046,0.795,-0.106,-10.262,3.65e-05,-0.0001923,0.0005228,
1762845184877486639,1762845184.8774867,1762845184,876912181,1762845184.876912,imu1_frame,-0.246506,0.228384,-0.526986,1.294,1.786,-9.02,3.4200000000000005e-05,-0.0001982,0.0005374,
1762845184901880207,1762845184.9018805,1762845184,900678291,1762845184.9006784,imu1_frame,-0.049357,0.051837,-0.061467,0.975,2.256,-7.792,3.43e-05,-0.0001923,0.000532,
1762845184925539275,1762845184.9255395,1762845184,925135608,1762845184.9251356,imu1_frame,0.048906,-0.156492,0.170742,0.23,-0.449,-8.136,3.65e-05,-0.0001923,0.0005254999999999999,
1762845184951711050,1762845184.9517112,1762845184,950939342,1762845184.9509394,imu1_frame,0.054221,-0.252198,0.175754,0.05,-1.469,-9.726,3.87e-05,-0.0001971,0.0005203,
1762845184976407242,1762845184.9764073,1762845184,975498534,1762845184.9754984,imu1_frame,-0.051929,-0.065745,0.060007,0.409,-1.324,-10.825,3.87e-05,-0.0001936,0.0005349,
1762845185002088726,1762845185.0020888,1762845185,1350893,1762845185.0013509,imu1_frame,-0.061697,0.064516,0.128419,0.827,-1.157,-9.3,3.87e-05,-0.0001959,0.000527,
1762845185025636960,1762845185.025637,1762845185,25028669,1762845185.0250287,imu1_frame,0.023845,0.071519,0.020542,1.392,-1.223,-8.853,3.65e-05,-0.00019470000000000002,0.0005295,
1762845185050521861,1762845185.0505219,1762845185,50032820,1762845185.0500329,imu1_frame,0.073477,-0.018417,-0.038025,1.724,-0.96,-8.151,3.5499999999999996e-05,-0.0001876,0.0005374,
1762845185075462845,1762845185.075463,1762845185,74828012,1762845185.074828,imu1_frame,0.103,-0.091126,-0.010591,1.722,-1.254,-8.443,4.1099999999999996e-05,-0.0001865,0.000527,
1762845185100485662,1762845185.1004858,1762845185,99973704,1762845185.0999737,imu1_frame,0.069802,0.006909,-0.057575,1.653,-0.986,-9.943,4.2000000000000004e-05,-0.00019600000000000002,0.0005285,
1762845185126085396,1762845185.1260855,1762845185,125669021,1762845185.125669,imu1_frame,-0.078745,0.193636,0.005459,1.399,-2.134,-8.85,3.66e-05,-0.0001888,0.0005375,
1762845185151292296,1762845185.1512926,1762845185,150752088,1762845185.150752,imu1_frame,-0.185351,0.142535,-0.096683,1.679,-1.439,-8.051,3.54e-05,-0.0001959,0.0005214999999999999,
1762845185175892989,1762845185.175893,1762845185,175606239,1762845185.1756063,imu1_frame,-0.162383,0.030793,-0.100937,1.755,-1.51,-8.372,3.2099999999999994e-05,-0.0001922,0.0005279000000000001,
1762845185199757140,1762845185.199757,1762845185,199568390,1762845185.1995683,imu1_frame,-0.053976,-0.01095,0.041978,1.715,-0.867,-9.792,3.6700000000000004e-05,-0.0001829,0.0005346999999999999,
1762845185226430498,1762845185.2264307,1762845185,225694665,1762845185.2256947,imu1_frame,-0.048255,0.100771,0.146192,1.3,-1.49,-10.417,3.5499999999999996e-05,-0.0001864,0.0005267,
1762845185250243524,1762845185.2502437,1762845185,249860399,1762845185.2498603,imu1_frame,-0.197982,0.214789,0.112588,1.275,-1.666,-10.646,3.31e-05,-0.00019700000000000002,0.0005214,
1762845185275649591,1762845185.2756495,1762845185,275279175,1762845185.2752793,imu1_frame,-0.202225,0.204403,0.028856,1.28,-1.757,-10.753,3.09e-05,-0.00019580000000000002,0.0005332000000000001,
1762845185300185742,1762845185.300186,1762845185,299781909,1762845185.2997818,imu1_frame,-0.14675,0.256129,-0.040344,1.491,-1.057,-11.44,2.86e-05,-0.0002016,0.0005252,
1762845185377401775,1762845185.377402,1762845185,325620726,1762845185.3256207,imu1_frame,-0.173128,0.424003,0.031406,1.724,-0.173,-10.635,2.0700000000000002e-05,-0.0002062,0.0005302,
1762845185378279067,1762845185.3782792,1762845185,378046942,1762845185.378047,imu1_frame,-0.117549,0.197252,0.108856,1.44,0.564,-8.322,1.76e-05,-0.00019789999999999999,0.0005299,
1762845185401057969,1762845185.4010582,1762845185,400495136,1762845185.400495,imu1_frame,0.214705,-0.353548,0.544584,1.124,1.411,-8.649,1.9900000000000003e-05,-0.0001932,0.000526,
1762845185427397077,1762845185.4273973,1762845185,426676369,1762845185.4266763,imu1_frame,0.332567,-0.510039,0.843388,0.493,-2.477,-11.998,2.1000000000000002e-05,-0.00019089999999999998,0.000522,
1762845185452119811,1762845185.4521198,1762845185,451412436,1762845185.4514124,imu1_frame,-0.201056,-0.116599,0.371051,0.089,-4.338,-13.449,1.88e-05,-0.0001908,0.0005285,
1762845185497551031,1762845185.4975512,1762845185,477546294,1762845185.4775462,imu1_frame,-0.406484,0.191,-0.255202,0.262,-1.991,-11.219,1.9800000000000004e-05,-0.00019910000000000001,0.0005154,
1762845185502209820,1762845185.50221,1762845185,500923279,1762845185.5009234,imu1_frame,0.05445,0.004134,-0.250228,0.732,0.647,-9.71,1.96e-05,-0.0002074,0.0005328,
1762845185526980637,1762845185.5269806,1762845185,526061638,1762845185.5260615,imu1_frame,0.28605,-0.08009,0.031753,1.524,2.883,-10.51,2.09e-05,-0.0001956,0.0005314,
1762845185551435747,1762845185.551436,1762845185,551059997,1762845185.55106,imu1_frame,0.270621,0.078547,0.308603,1.609,1.308,-9.719,1.88e-05,-0.00019439999999999998,0.0005219000000000001,
1762845185575789731,1762845185.57579,1762845185,575538940,1762845185.5755389,imu1_frame,0.294295,0.017762,0.290662,1.369,-0.651,-8.097,1.87e-05,-0.0001955,0.0005259,
1762845185600302174,1762845185.6003022,1762845185,599930299,1762845185.5999303,imu1_frame,0.363245,-0.046425,0.023313,1.191,-1.844,-8.346,1.44e-05,-0.0001907,0.0005430000000000001,
1762845185624804824,1762845185.624805,1762845185,624590950,1762845185.6245909,imu1_frame,0.293866,-0.023668,-0.197287,1.339,-0.813,-10.002,1.78e-05,-0.0001861,0.0005283999999999999,
1762845185650862058,1762845185.6508622,1762845185,650470391,1762845185.6504705,imu1_frame,0.156827,0.176915,-0.041979,1.587,-0.022,-8.932,1.46e-05,-0.0001777,0.0005308000000000001,
1762845185675980208,1762845185.6759803,1762845185,675388084,1762845185.675388,imu1_frame,0.193795,0.216766,-0.009388,1.868,-0.313,-7.995,1.3700000000000001e-05,-0.0001671,0.0005306999999999999,
1762845185701589483,1762845185.7015896,1762845185,700864609,1762845185.7008646,imu1_frame,0.16691,0.103658,-0.088631,1.974,-1.163,-8.143,1.35e-05,-0.0001777,0.0005295,
1762845185726643884,1762845185.726644,1762845185,726095801,1762845185.726096,imu1_frame,0.127273,-0.008616,-0.160619,1.838,-0.63,-8.099,1.57e-05,-0.0001789,0.0005323,
1762845185751423660,1762845185.7514238,1762845185,750759952,1762845185.7507598,imu1_frame,0.233176,0.040209,-0.068444,1.964,0.428,-9.851,1.59e-05,-0.0001683,0.0005401000000000001,
1762845185776815643,1762845185.7768157,1762845185,775938061,1762845185.775938,imu1_frame,0.093161,0.097088,-0.003915,1.879,-1.048,-9.433,1.49e-05,-0.0001659,0.0005306999999999999,
1762845185803221585,1762845185.8032217,1762845185,802575210,1762845185.802575,imu1_frame,-0.03469,0.102059,-0.154482,2.045,-1.558,-9.164,1.24e-05,-0.0001777,0.0005386999999999999,
1762845185838557812,1762845185.8385577,1762845185,837608479,1762845185.8376086,imu1_frame,-0.127756,0.145339,-0.249725,2.479,-0.387,-9.244,1.0500000000000001e-05,-0.0001646,0.0005371,
1762845185852443220,1762845185.8524432,1762845185,851528470,1762845185.8515284,imu1_frame,-0.036817,0.143666,-0.170457,2.671,0.312,-9.229,1.35e-05,-0.0001777,0.0005321,
1762845185880311285,1762845185.8803115,1762845185,879373202,1762845185.8793733,imu1_frame,0.02002,0.099175,-0.073098,2.302,-0.414,-9.179,1.03e-05,-0.0001717,0.0005359000000000001,
1762845185903601145,1762845185.9036012,1762845185,901789813,1762845185.90179,imu1_frame,0.039462,0.00409,-0.139601,1.634,-1.832,-9.508,1.02e-05,-0.0001777,0.0005453,
1762845185940819371,1762845185.9408195,1762845185,937621081,1762845185.937621,imu1_frame,0.089495,0.019374,-0.186508,1.758,-0.544,-11.34,1.3700000000000001e-05,-0.0001694,0.0005334,
1762845185954900404,1762845185.9549005,1762845185,952451572,1762845185.9524515,imu1_frame,-0.048852,0.180588,-0.148254,2.106,-0.832,-9.822,6.8e-06,-0.0001811,0.0005438,
1762845185976127598,1762845185.9761276,1762845185,975457640,1762845185.9754577,imu1_frame,-0.161412,-0.017893,-0.022397,2.617,-0.222,-10.156,5.9e-06,-0.00017050000000000002,0.0005343,
1762845186001661873,1762845186.001662,1762845186,1112749,1762845186.0011127,imu1_frame,-0.095963,-0.174648,0.152976,2.316,1.139,-9.692,9.2e-06,-0.0001741,0.0005252,
1762845186026609899,1762845186.0266101,1762845186,25724733,1762845186.0257246,imu1_frame,0.246191,-0.570406,0.488608,0.849,-0.629,-11.686,1.1400000000000001e-05,-0.0001753,0.0005306,
1762845186053705507,1762845186.0537057,1762845186,52806007,1762845186.052806,imu1_frame,0.032167,-0.394358,0.225093,0.378,-4.574,-14.886,1.35e-05,-0.0001777,0.0005481,
1762845186076629867,1762845186.0766299,1762845186,75915909,1762845186.0759158,imu1_frame,-0.403757,0.298594,-0.515099,0.76,-2.902,-12.066,1.68e-05,-0.00018010000000000001,0.0005363,
1762845186101890059,1762845186.10189,1762845186,101323101,1762845186.1013231,imu1_frame,-0.46932,0.186663,-0.509151,1.309,-0.037,-9.251,1.55e-05,-0.0001896,0.0005364,
1762845186125287294,1762845186.1252873,1762845186,124884336,1762845186.1248844,imu1_frame,-0.199002,0.003236,-0.306792,1.365,1.125,-9.171,1.67e-05,-0.00018490000000000002,0.000535,
1762845186152895818,1762845186.152896,1762845186,152109568,1762845186.1521096,imu1_frame,-0.093389,-0.007514,-0.081934,0.91,1.62,-9.695,1.9e-05,-0.0001837,0.0005311000000000001,
1762845186177393344,1762845186.1773934,1762845186,175937761,1762845186.1759377,imu1_frame,-0.022393,-0.050021,0.152594,0.226,0.238,-8.608,1.9800000000000004e-05,-0.00019910000000000001,0.0005300000000000001,
1762845186200927037,1762845186.200927,1762845186,200302371,1762845186.2003024,imu1_frame,0.18109,-0.198586,0.285373,-0.071,-1.589,-8.628,1.54e-05,-0.0001943,0.0005404,
1762845186226145896,1762845186.226146,1762845186,225478646,1762845186.2254786,imu1_frame,0.170099,-0.147861,0.009978,0.297,-3.329,-9.656,2.2100000000000002e-05,-0.0001921,0.0005287,
1762845186250455713,1762845186.2504559,1762845186,249993214,1762845186.2499933,imu1_frame,0.052866,0.051026,-0.271344,1.108,-1.931,-9.027,2.1000000000000002e-05,-0.000192,0.0005367,
1762845186275799864,1762845186.2758,1762845186,275490114,1762845186.27549,imu1_frame,0.068754,0.053706,-0.267444,1.599,-0.193,-7.457,2.3500000000000002e-05,-0.0001803,0.0005393,
1762845186300665973,1762845186.3006659,1762845186,300141681,1762845186.3001416,imu1_frame,0.122972,-0.011308,-0.080563,1.701,-0.977,-7.488,2.36e-05,-0.00017549999999999998,0.0005299,
1762845186326605748,1762845186.326606,1762845186,325855040,1762845186.325855,imu1_frame,0.128572,-0.092854,-0.123071,1.659,-0.815,-8.24,2.57e-05,-0.00017910000000000002,0.0005288000000000001,
1762845186351483732,1762845186.3514838,1762845186,350863607,1762845186.3508637,imu1_frame,0.032211,-0.07385,-0.009955,1.51,-0.45,-9.43,2.68e-05,-0.000178,0.0005394999999999999,
1762845186376423799,1762845186.3764238,1762845186,375866257,1762845186.3758662,imu1_frame,-0.083875,0.073887,0.046777,1.362,-0.783,-10.022,2.5600000000000002e-05,-0.0001838,0.0005302,
1762845186400028534,1762845186.4000285,1762845186,399738575,1762845186.3997386,imu1_frame,-0.05189,0.08231,0.020226,1.498,-1.351,-9.272,2.34e-05,-0.00018140000000000002,0.0005353000000000001,
1762845186425365226,1762845186.4253654,1762845186,424990393,1762845186.4249904,imu1_frame,-0.118459,0.070829,-0.055895,1.815,-1.236,-9.265,2.13e-05,-0.0001767,0.0005379,
1762845186450807334,1762845186.4508073,1762845186,450481293,1762845186.4504812,imu1_frame,-0.166772,0.048358,-0.056381,1.906,-1.023,-9.124,2.57e-05,-0.0001803,0.0005248000000000001,
1762845186475810568,1762845186.4758108,1762845186,475457235,1762845186.4754572,imu1_frame,-0.037155,0.011357,0.062312,1.986,-0.482,-9.74,2.33e-05,-0.0001862,0.0005367,
1762845186500226886,1762845186.500227,1762845186,499796136,1762845186.4997962,imu1_frame,-0.05005,0.061181,0.234907,1.801,-1.059,-10.026,2.22e-05,-0.0001862,0.0005393,
1762845186526211452,1762845186.5262115,1762845186,525667286,1762845186.5256672,imu1_frame,-0.139127,0.121296,0.147208,1.737,-2.15,-10.332,1.9e-05,-0.0001837,0.0005245,
1762845186551145145,1762845186.5511453,1762845186,550688603,1762845186.5506885,imu1_frame,-0.113316,0.115129,0.045265,1.844,-1.945,-10.436,1.66e-05,-0.000192,0.0005405,
1762845186576316628,1762845186.5763168,1762845186,575836254,1762845186.5758362,imu1_frame,-0.092018,0.158643,0.056487,2.276,-0.759,-10.543,1.24e-05,-0.00018010000000000001,0.0005414,
1762845186600892154,1762845186.6008923,1762845186,600571113,1762845186.6005712,imu1_frame,-0.008444,-0.01215,0.37951,2.121,0.794,-10.032,1.4500000000000002e-05,-0.0001825,0.0005309000000000001,
1762845186625213555,1762845186.6252136,1762845186,624829847,1762845186.6248298,imu1_frame,0.044444,-0.241127,0.660062,1.523,-0.899,-10.911,1.33e-05,-0.0001872,0.0005269000000000001,
1762845186651152830,1762845186.651153,1762845186,650262956,1762845186.650263,imu1_frame,0.153276,-0.450047,0.611088,0.646,-3.441,-12.122,9.900000000000002e-06,-0.0001907,0.0005414,
1762845186677102730,1762845186.677103,1762845186,676224772,1762845186.6762247,imu1_frame,-0.064526,-0.194207,0.111668,0.61,-4.559,-13.978,1.33e-05,-0.0001907,0.0005283,
1762845186700755965,1762845186.700756,1762845186,700305590,1762845186.7003057,imu1_frame,-0.299601,0.202944,-0.342691,0.628,-2.16,-12.209,1.33e-05,-0.0001895,0.0005376,
1762845186728214031,1762845186.728214,1762845186,725845615,1762845186.7258456,imu1_frame,-0.398359,0.345734,-0.370223,1.056,0.588,-10.871,1.12e-05,-0.0001848,0.0005281,
1762845186750992433,1762845186.7509925,1762845186,750214350,1762845186.7502143,imu1_frame,-0.180902,0.226705,-0.170916,1.015,2.324,-8.329,1.33e-05,-0.0001919,0.0005243,
1762845186776351416,1762845186.7763517,1762845186,775525792,1762845186.7755258,imu1_frame,0.203856,-0.047171,0.145288,1.033,1.169,-8.406,1.2e-05,-0.0002001,0.000531,
1762845186801244359,1762845186.8012445,1762845186,800756442,1762845186.8007565,imu1_frame,0.26819,-0.138149,0.153494,0.756,-0.07,-8.127,7.8e-06,-0.00018820000000000002,0.000532,
1762845186826784800,1762845186.8267848,1762845186,826387509,1762845186.8263874,imu1_frame,0.255979,-0.183307,0.016533,0.436,-1.559,-8.509,1.09e-05,-0.0001966,0.0005269000000000001,
1762845186851803368,1762845186.8518035,1762845186,850895785,1762845186.850896,imu1_frame,0.224519,-0.122594,-0.11102,0.802,-1.076,-9.455,9.900000000000002e-06,-0.0001918,0.0005374,
1762845186875992394,1762845186.8759925,1762845186,875633311,1762845186.8756332,imu1_frame,0.138797,-0.04149,-0.133862,1.251,-0.135,-8.951,1.46e-05,-0.0001813,0.0005376,
1762845186900701961,1762845186.900702,1762845186,900470295,1762845186.9004703,imu1_frame,0.119845,-0.056024,-0.042353,1.691,-0.526,-8.489,1.9e-05,-0.0001825,0.0005311000000000001,
1762845186925729362,1762845186.9257293,1762845186,925322695,1762845186.9253228,imu1_frame,0.132084,-0.105873,-0.12102,1.888,-0.659,-8.368,1.9900000000000003e-05,-0.0001908,0.0005286,
1762845186950610554,1762845186.9506106,1762845186,950358054,1762845186.9503582,imu1_frame,0.168037,-0.133775,-0.112521,1.918,-0.181,-8.518,1.9e-05,-0.0001825,0.0005457999999999999,
1762845186976331037,1762845186.9763312,1762845186,975553996,1762845186.975554,imu1_frame,0.093314,-0.003767,-0.040236,2.048,0.179,-9.669,1.9e-05,-0.00018140000000000002,0.0005298000000000001,
1762845187001347980,1762845187.0013483,1762845187,882813,1762845187.0008829,imu1_frame,0.008214,0.066477,0.028478,2.059,-0.659,-9.238,1.67e-05,-0.00018490000000000002,0.0005430000000000001,
1762845187027497671,1762845187.0274978,1762845187,26692588,1762845187.0266926,imu1_frame,-0.036748,0.034539,-0.024298,2.1,-0.902,-8.513,1.47e-05,-0.000173,0.0005388,
1762845187053334780,1762845187.053335,1762845187,52343405,1762845187.0523434,imu1_frame,0.104321,-0.074584,-0.074153,1.942,-1.333,-8.916,2.03e-05,-0.0001731,0.0005324,
1762845187077417139,1762845187.0774174,1762845187,76603140,1762845187.0766032,imu1_frame,0.02159,-0.051581,-0.125538,2.013,-0.388,-10.362,2.23e-05,-0.00018140000000000002,0.0005325999999999999,
1762845187104569705,1762845187.1045697,1762845187,103597622,1762845187.1035976,imu1_frame,-0.160914,0.209289,-0.05011,1.829,-0.081,-10.061,1.8e-05,-0.0001778,0.0005484,
1762845187127735232,1762845187.1277354,1762845187,126923649,1762845187.1269236,imu1_frame,-0.088591,0.10087,-0.032985,1.403,-1.218,-10.061,1.77e-05,-0.0001896,0.0005325,
1762845187153118507,1762845187.1531186,1762845187,152056966,1762845187.152057,imu1_frame,0.101236,-0.019648,-0.092701,1.208,-1.397,-10.646,1.78e-05,-0.0001861,0.0005405,
1762845187178150157,1762845187.1781502,1762845187,177116908,1762845187.1771169,imu1_frame,0.081398,0.030148,-0.217584,1.674,-1.352,-11.511,1.8100000000000003e-05,-0.0001731,0.0005390000000000001,
1762845187202547100,1762845187.2025473,1762845187,201600434,1762845187.2016006,imu1_frame,0.035185,0.155101,-0.35797,2.691,-0.426,-9.448,1.7100000000000002e-05,-0.0001648,0.0005322,
1762845187227821750,1762845187.2278218,1762845187,226837751,1762845187.2268376,imu1_frame,0.066416,-0.13578,-0.071054,3.139,1.679,-9.188,1.9e-05,-0.0001825,0.0005285,
1762845187253415401,1762845187.2534156,1762845187,252435068,1762845187.252435,imu1_frame,0.154564,-0.243046,0.207508,2.675,-1.119,-9.276,1.9e-05,-0.00018140000000000002,0.0005485,
1762845187279576926,1762845187.279577,1762845187,278651134,1762845187.2786512,imu1_frame,0.137687,-0.519915,0.368965,1.31,-0.802,-10.976,2.36e-05,-0.0001744,0.0005365999999999999,
1762845187300422787,1762845187.300423,1762845187,299973621,1762845187.2999737,imu1_frame,-0.047342,-0.424225,0.291337,-0.188,-4.763,-14.938,2.46e-05,-0.00017790000000000001,0.0005434,
1762845187326732562,1762845187.3267326,1762845187,326291687,1762845187.3262918,imu1_frame,-0.32766,0.297681,-0.355978,-0.136,-3.878,-14.057,2.2700000000000003e-05,-0.0001613,0.0005391,
1762845187350963880,1762845187.350964,1762845187,350552880,1762845187.3505528,imu1_frame,-0.596217,0.497457,-0.573901,0.41,-0.724,-10.048,2.57e-05,-0.0001803,0.0005288000000000001,
1762845187375844239,1762845187.3758445,1762845187,375560655,1762845187.3755608,imu1_frame,-0.522039,0.293441,-0.398286,0.706,0.923,-8.204,2.54e-05,-0.0001968,0.0005290000000000001,
1762845187400492681,1762845187.400493,1762845187,400327306,1762845187.4003272,imu1_frame,-0.165841,0.00667,-0.237224,0.523,1.405,-8.768,2.2e-05,-0.0001968,0.0005341,
1762845187425432498,1762845187.4254327,1762845187,425301582,1762845187.4253016,imu1_frame,0.275736,-0.096222,0.289928,0.288,1.813,-9.465,2.3199999999999998e-05,-0.00019439999999999998,0.0005235,
1762845187450518649,1762845187.4505186,1762845187,450351232,1762845187.4503512,imu1_frame,0.314741,-0.123932,0.320762,0.128,-1.24,-9.964,1.9900000000000003e-05,-0.0001908,0.0005313,
1762845187475069133,1762845187.4750693,1762845187,474639383,1762845187.4746394,imu1_frame,0.152361,-0.001892,0.021363,0.402,-2.437,-9.17,2.24e-05,-0.00017910000000000002,0.0005339,
1762845187501529408,1762845187.5015295,1762845187,501041116,1762845187.5010412,imu1_frame,0.082548,0.018079,-0.2965,0.924,-1.749,-8.351,2.34e-05,-0.00018260000000000002,0.0005247,
1762845187527798557,1762845187.5277987,1762845187,526727683,1762845187.5267277,imu1_frame,0.157071,-0.04518,-0.271509,1.457,1.112,-8.316,2.6700000000000002e-05,-0.0001851,0.0005289,
1762845187552995291,1762845187.5529954,1762845187,552137708,1762845187.5521376,imu1_frame,0.251268,-0.023401,0.139,1.648,0.622,-8.42,2.4500000000000003e-05,-0.000185,0.0005407999999999999,
1762845187577403859,1762845187.577404,1762845187,576598609,1762845187.5765986,imu1_frame,0.313982,-0.123118,0.084736,1.303,-1.19,-8.504,2.6700000000000002e-05,-0.0001827,0.0005302,
1762845187601825885,1762845187.601826,1762845187,601090968,1762845187.601091,imu1_frame,0.108043,-0.015246,0.030829,1.124,-1.431,-9.827,2.58e-05,-0.0001744,0.0005367,
1762845187626681577,1762845187.6266818,1762845187,625904619,1762845187.6259046,imu1_frame,-0.153174,0.173079,-0.047119,1.271,-1.428,-9.201,2.26e-05,-0.0001684,0.0005365,
1762845187652746227,1762845187.6527464,1762845187,651915061,1762845187.651915,imu1_frame,-0.011367,0.0593,0.065837,1.621,-0.812,-8.334,2.59e-05,-0.0001685,0.0005327,
1762845187678291127,1762845187.6782913,1762845187,677366461,1762845187.6773665,imu1_frame,0.078156,0.01968,0.077039,2.003,-1.197,-9.42,2.57e-05,-0.00017910000000000002,0.0005328,
1762845187702457570,1762845187.7024577,1762845187,701405196,1762845187.7014053,imu1_frame,0.021409,0.026815,0.0845,2.128,-1.309,-8.868,2.14e-05,-0.0001731,0.0005457999999999999,
1762845187726523679,1762845187.7265239,1762845187,725735138,1762845187.7257352,imu1_frame,-0.139413,-0.005308,0.109802,2.158,-1.302,-9.334,2.13e-05,-0.00017790000000000001,0.0005312,
1762845187752449038,1762845187.752449,1762845187,751382455,1762845187.7513824,imu1_frame,-0.212963,0.048086,0.174567,1.917,-1.383,-9.472,1.93e-05,-0.0001684,0.0005376,
1762845187782907976,1762845187.782908,1762845187,781944769,1762845187.7819448,imu1_frame,-0.144819,-0.018392,0.16159,1.476,-2.046,-10.02,1.8200000000000002e-05,-0.0001648,0.0005349,
1762845187803511380,1762845187.8035114,1762845187,801296423,1762845187.8012965,imu1_frame,-0.152233,-0.00534,0.15523,1.454,-2.2,-10.922,2.05e-05,-0.00016250000000000002,0.0005296,
1762845187828591614,1762845187.8285918,1762845187,827624573,1762845187.8276246,imu1_frame,-0.245984,0.180402,0.040037,2.012,-0.913,-10.926,2.03e-05,-0.0001743,0.0005324,
1762845187854105514,1762845187.8541057,1762845187,852898265,1762845187.8528984,imu1_frame,-0.258889,0.033753,0.212988,2.311,0.841,-10.173,1.13e-05,-0.0001777,0.0005440000000000001,
1762845187877201957,1762845187.877202,1762845187,876521041,1762845187.876521,imu1_frame,0.009186,-0.211443,0.645639,1.806,1.311,-10.266,1.33e-05,-0.0001919,0.0005296,
1762845187902207525,1762845187.9022076,1762845187,901294733,1762845187.9012947,imu1_frame,0.23597,-0.399406,0.95409,0.405,-2.258,-11.891,1.2200000000000002e-05,-0.0001871,0.0005362,
1762845187932298130,1762845187.9322984,1762845187,931636006,1762845187.931636,imu1_frame,-0.051338,-0.029392,0.354531,-0.313,-6.286,-14.32,1.36e-05,-0.0001742,0.0005361000000000001,
1762845187952344117,1762845187.9523442,1762845187,951640118,1762845187.9516401,imu1_frame,-0.456994,0.227375,-0.302615,-0.558,-2.732,-10.608,1.15e-05,-0.0001682,0.0005252,
1762845187975638144,1762845187.9756382,1762845187,975203019,1762845187.975203,imu1_frame,-0.362561,0.107709,-0.260058,-0.309,0.245,-8.986,1.12e-05,-0.00018590000000000002,0.0005281,
1762845187999837003,1762845187.999837,1762845187,999624545,1762845187.9996245,imu1_frame,0.017043,-0.2152,-0.077555,0.23,1.528,-9.395,9.900000000000002e-06,-0.0001954,0.0005361000000000001,
1762845188025388695,1762845188.025389,1762845188,24985695,1762845188.0249858,imu1_frame,0.175793,-0.212431,0.128776,0.915,1.705,-10.556,1.87e-05,-0.0001955,0.0005259,
1762845188050087013,1762845188.050087,1762845188,49817804,1762845188.0498178,imu1_frame,0.194697,-0.120442,0.268445,1.117,0.686,-9.97,1.67e-05,-0.000186,0.000527,
1762845188075619996,1762845188.0756202,1762845188,75418996,1762845188.075419,imu1_frame,0.226756,-0.046674,0.265788,1.034,-1.276,-9.862,1.35e-05,-0.0001813,0.0005335,
1762845188102271687,1762845188.1022718,1762845188,101566979,1762845188.101567,imu1_frame,0.291732,0.018713,0.091896,0.981,-2.212,-9.025,1.7899999999999998e-05,-0.00018020000000000002,0.0005283999999999999,
1762845188127753588,1762845188.1277535,1762845188,126954380,1762845188.1269543,imu1_frame,0.25162,0.113516,-0.144867,1.188,-1.72,-8.809,1.36e-05,-0.00017649999999999998,0.0005281,
1762845188153358404,1762845188.1533585,1762845188,152346655,1762845188.1523466,imu1_frame,0.06806,0.063522,-0.18435,1.525,-0.549,-7.979,1.36e-05,-0.0001753,0.0005348000000000001,
1762845188179870346,1762845188.1798706,1762845188,178359180,1762845188.1783593,imu1_frame,0.042337,0.069583,-0.14611,1.742,-1.255,-8.39,1.4500000000000002e-05,-0.0001872,0.0005296,
1762845188201347207,1762845188.2013474,1762845188,200923374,1762845188.2009234,imu1_frame,0.102704,0.038582,-0.122003,1.638,-0.516,-8.307,1.23e-05,-0.0001848,0.0005348000000000001,
1762845188227132649,1762845188.2271328,1762845188,226188649,1762845188.2261887,imu1_frame,0.18649,-0.040877,-0.085489,1.55,-1.317,-8.945,1.04e-05,-0.0001694,0.0005304999999999999,
1762845188250915008,1762845188.2509153,1762845188,250532217,1762845188.2505322,imu1_frame,0.080862,0.009422,-0.149334,1.693,-1.334,-9.082,1.48e-05,-0.0001718,0.0005321,
1762845188275455867,1762845188.275456,1762845188,274989868,1762845188.2749898,imu1_frame,-0.089939,0.127073,-0.201132,1.942,-1.181,-8.921,1.57e-05,-0.00018010000000000001,0.0005336,
1762845188301417017,1762845188.301417,1762845188,300902559,1762845188.3009026,imu1_frame,-0.055941,0.079352,-0.233694,2.308,-0.994,-8.677,1.25e-05,-0.0001741,0.000536,
1762845188329360166,1762845188.3293602,1762845188,328806750,1762845188.3288066,imu1_frame,0.032662,-0.012275,-0.205424,2.415,-0.451,-8.477,1.7899999999999998e-05,-0.00018020000000000002,0.0005337,
1762845188350721027,1762845188.3507211,1762845188,350258236,1762845188.3502584,imu1_frame,0.101731,-0.10255,-0.173921,2.295,-0.916,-9.234,1.35e-05,-0.0001813,0.0005335,
1762845188376951510,1762845188.3769517,1762845188,376265261,1762845188.3762653,imu1_frame,0.090096,0.018385,-0.0689,2.067,-0.647,-10.483,1.48e-05,-0.00016950000000000003,0.0005374,
1762845188401256286,1762845188.4012563,1762845188,400516162,1762845188.4005163,imu1_frame,-0.123723,0.152694,-0.162025,1.625,-1.028,-10.643,1.92e-05,-0.00016950000000000003,0.000531,
1762845188427304020,1762845188.427304,1762845188,426615478,1762845188.4266155,imu1_frame,-0.072177,0.090966,-0.167043,1.394,-1.262,-11.248,1.6899999999999997e-05,-0.0001754,0.0005336,
1762845188451939296,1762845188.4519393,1762845188,451397671,1762845188.4513977,imu1_frame,-0.003566,0.185677,-0.243972,2.184,-1.119,-10.057,1.34e-05,-0.00018240000000000002,0.0005429,
1762845188477626696,1762845188.4776268,1762845188,477103904,1762845188.477104,imu1_frame,-0.005123,-0.086013,-0.111729,2.505,0.538,-9.077,1.57e-05,-0.0001825,0.0005283,
1762845188502647596,1762845188.5026476,1762845188,501314555,1762845188.5013146,imu1_frame,0.184693,-0.295849,0.126662,2.28,-0.889,-9.564,1.68e-05,-0.0001825,0.000535,
1762845188527134330,1762845188.5271344,1762845188,526469456,1762845188.5264695,imu1_frame,0.182412,-0.585451,0.354313,0.987,-0.439,-12.599,1.8100000000000003e-05,-0.0001719,0.0005403,
1762845188551994939,1762845188.551995,1762845188,551256857,1762845188.551257,imu1_frame,0.064351,-0.340718,0.340942,-0.343,-4.991,-15.558,2.58e-05,-0.0001732,0.0005314,
1762845188576240965,1762845188.576241,1762845188,575570383,1762845188.5755703,imu1_frame,-0.357035,0.381344,-0.606033,-0.134,-3.995,-13.931,2.36e-05,-0.00017199999999999998,0.0005312,
1762845188602220365,1762845188.6022203,1762845188,601591616,1762845188.6015916,imu1_frame,-0.464103,0.455258,-0.677522,0.585,0.05,-9.798,2.12e-05,-0.00018020000000000002,0.0005459000000000001,
1762845188627849182,1762845188.6278493,1762845188,627248641,1762845188.6272485,imu1_frame,-0.074322,0.112722,-0.412037,0.793,1.505,-8.792,2.4299999999999998e-05,-0.0001933,0.0005275,
1762845188651262042,1762845188.651262,1762845188,650673876,1762845188.6506739,imu1_frame,0.050755,0.03493,-0.108579,0.498,0.912,-9.842,2.2100000000000002e-05,-0.0001932,0.0005341,
1762845188678588150,1762845188.6785882,1762845188,677362650,1762845188.6773627,imu1_frame,0.058558,0.03228,0.057752,-0.001,-0.216,-8.815,2.23e-05,-0.00018260000000000002,0.0005325999999999999,
1762845188701122218,1762845188.7011225,1762845188,700729094,1762845188.7007291,imu1_frame,0.177332,-0.074134,0.064633,-0.17,-2.322,-9.469,2.5600000000000002e-05,-0.0001827,0.0005301,
1762845188726325619,1762845188.7263255,1762845188,725453661,1762845188.7254536,imu1_frame,0.08199,-0.007646,-0.260865,0.028,-2.324,-8.811,2.2499999999999998e-05,-0.0001708,0.0005272,
1762845188750523437,1762845188.7505236,1762845188,750201770,1762845188.7502017,imu1_frame,0.061286,0.007515,-0.427736,0.609,-1.612,-7.997,2.4400000000000004e-05,-0.0001897,0.0005382000000000001,
1762845188775540670,1762845188.7755408,1762845188,774997462,1762845188.7749975,imu1_frame,0.104775,0.066589,-0.475063,1.417,0.499,-7.562,3e-05,-0.0001875,0.0005264,
1762845188800824821,1762845188.8008249,1762845188,800558154,1762845188.800558,imu1_frame,0.14689,0.034888,-0.331555,1.855,1.057,-7.01,3.0200000000000002e-05,-0.00017449999999999999,0.0005329000000000001,
1762845188825296805,1762845188.825297,1762845188,824770889,1762845188.824771,imu1_frame,0.140659,-0.047707,-0.111674,1.747,0.921,-7.643,3.0200000000000002e-05,-0.00017449999999999999,0.0005356,
1762845188850871372,1762845188.8508713,1762845188,850550497,1762845188.8505504,imu1_frame,0.075751,-0.064216,0.023158,1.506,-0.077,-8.963,3.35e-05,-0.00017690000000000002,0.0005291,
1762845188875632314,1762845188.8756325,1762845188,875196856,1762845188.875197,imu1_frame,0.018052,0.013044,0.087392,1.492,-1.341,-9.527,3.2300000000000006e-05,-0.0001828,0.0005332000000000001,
1762845188901458298,1762845188.9014583,1762845188,900920840,1762845188.9009209,imu1_frame,-0.05111,0.0951,0.067856,1.869,-1.441,-9.183,3.11e-05,-0.0001851,0.0005451000000000001,
1762845188926830698,1762845188.9268308,1762845188,926307407,1762845188.9263074,imu1_frame,-0.108309,0.098106,0.015722,2.158,-1.22,-9.094,3.12e-05,-0.000184,0.0005344,
1762845188951698140,1762845188.9516983,1762845188,951142057,1762845188.951142,imu1_frame,-0.066674,0.039149,0.147939,1.888,-1.315,-9.357,2.4500000000000003e-05,-0.0001838,0.0005394,
1762845188979936914,1762845188.979937,1762845188,978981373,1762845188.9789813,imu1_frame,-0.147357,0.140632,0.098355,1.933,-2.13,-10.094,2.48e-05,-0.0001696,0.0005419000000000001,
1762845189002351608,1762845189.0023518,1762845189,1694733,1762845189.0016947,imu1_frame,-0.116722,0.111998,0.125184,1.893,-2.388,-9.263,2.57e-05,-0.0001803,0.0005328,
1762845189026327759,1762845189.0263278,1762845189,25703134,1762845189.0257032,imu1_frame,-0.077263,0.04839,-0.000909,1.872,-2.502,-9.941,2.4400000000000004e-05,-0.0001874,0.0005341,
1762845189053176867,1762845189.0531769,1762845189,51971617,1762845189.0519717,imu1_frame,-0.12495,0.073214,0.005822,1.977,-0.505,-10.528,2.14e-05,-0.0001719,0.0005417999999999999,
1762845189077449976,1762845189.07745,1762845189,76280768,1762845189.0762808,imu1_frame,-0.151394,-0.022301,0.234767,1.544,0.598,-9.709,2.12e-05,-0.00018260000000000002,0.0005312,
1762845189101352752,1762845189.101353,1762845189,100906294,1762845189.1009064,imu1_frame,-0.006808,-0.386863,0.529838,0.935,-0.572,-10.408,2.33e-05,-0.00019089999999999998,0.0005314,
1762845189126937819,1762845189.1269379,1762845189,126350695,1762845189.1263506,imu1_frame,0.035017,-0.525692,0.518274,0.439,-1.767,-12.606,2.3500000000000002e-05,-0.0001767,0.0005325999999999999,
1762845189156525842,1762845189.1565259,1762845189,155245843,1762845189.1552458,imu1_frame,-0.212295,-0.232162,0.397941,0.499,-2.368,-13.894,2.68e-05,-0.0001815,0.0005315,
1762845189177218245,1762845189.1772184,1762845189,176402621,1762845189.1764026,imu1_frame,-0.565486,0.255351,-0.06383,0.702,-2.458,-13.714,2.33e-05,-0.0001862,0.0005287,
1762845189201126480,1762845189.2011266,1762845189,200452480,1762845189.2004526,imu1_frame,-0.385872,0.376373,-0.220614,0.748,0.092,-10.631,2.09e-05,-0.00020030000000000002,0.0005341,
1762845189228168754,1762845189.2281687,1762845189,227349838,1762845189.2273498,imu1_frame,0.251111,0.013961,-0.085481,0.634,1.43,-8.708,1.87e-05,-0.00019910000000000001,0.0005246,
1762845189253104488,1762845189.2531044,1762845189,251988197,1762845189.2519882,imu1_frame,0.459598,-0.12216,0.22759,0.265,0.918,-9.689,2.09e-05,-0.0001956,0.0005301,
1762845189282799885,1762845189.2828,1762845189,278745513,1762845189.2787454,imu1_frame,0.281037,0.06446,0.278476,-0.03,-1.114,-9.969,1.67e-05,-0.000186,0.0005337,
1762845189301606165,1762845189.3016062,1762845189,300846499,1762845189.3008466,imu1_frame,0.217012,0.047459,0.056636,-0.107,-2.317,-8.337,1.9e-05,-0.0001837,0.0005285,
1762845189327424815,1762845189.3274248,1762845189,326291982,1762845189.326292,imu1_frame,0.212056,-0.156202,-0.105946,0.413,-1.702,-8.353,1.9900000000000003e-05,-0.0001908,0.0005273,
1762845189354328673,1762845189.3543286,1762845189,353526007,1762845189.353526,imu1_frame,0.23978,-0.156029,-0.177834,0.965,-1.185,-9.169,1.9e-05,-0.0001825,0.0005351,
1762845189376907367,1762845189.3769073,1762845189,376240950,1762845189.376241,imu1_frame,0.271707,-0.074335,-0.155461,1.593,-0.488,-9.032,2.34e-05,-0.000185,0.0005287,
1762845189402536808,1762845189.4025369,1762845189,401871392,1762845189.4018714,imu1_frame,0.20139,0.041081,-0.237846,2.153,-0.739,-9.152,2.4500000000000003e-05,-0.00018260000000000002,0.0005354,
1762845189428732458,1762845189.4287326,1762845189,428101500,1762845189.4281015,imu1_frame,0.103626,0.13206,-0.226135,2.318,0.331,-8.457,2.2499999999999998e-05,-0.0001708,0.0005352,
1762845189449997736,1762845189.449998,1762845189,449677653,1762845189.4496777,imu1_frame,0.105324,0.094757,-0.171144,1.857,-0.204,-8.432,2.2499999999999998e-05,-0.0001743,0.0005219000000000001,
1762845189476679094,1762845189.4766793,1762845189,476189469,1762845189.4761894,imu1_frame,0.12786,0.126622,-0.103328,1.8,-0.572,-9.043,2.57e-05,-0.00017790000000000001,0.0005261,
1762845189500850828,1762845189.5008512,1762845189,500304579,1762845189.5003045,imu1_frame,0.069783,0.20635,-0.08018,1.837,-1.761,-8.528,2.02e-05,-0.00017549999999999998,0.0005417999999999999,
1762845189526535270,1762845189.5265353,1762845189,526022562,1762845189.5260227,imu1_frame,-0.004706,0.199432,-0.19591,2.309,-1.041,-8.957,2.02e-05,-0.000179,0.0005298000000000001,
1762845189551735421,1762845189.5517354,1762845189,551138671,1762845189.5511386,imu1_frame,-0.005993,0.225424,-0.225772,2.252,-0.858,-8.953,1.57e-05,-0.0001825,0.0005336,
1762845189578148279,1762845189.5781484,1762845189,577175529,1762845189.5771756,imu1_frame,0.000558,0.110542,-0.172244,2.322,-0.68,-9.05,1.59e-05,-0.0001718,0.0005388,
1762845189602338971,1762845189.6023393,1762845189,601617638,1762845189.6016176,imu1_frame,0.16336,0.017332,-0.073506,2.053,-1.014,-9.724,1.91e-05,-0.0001754,0.0005311000000000001,
1762845189626536456,1762845189.6265366,1762845189,626044456,1762845189.6260445,imu1_frame,0.113998,0.056202,-0.033603,1.852,-1.67,-10.988,1.83e-05,-0.00016120000000000002,0.0005348000000000001,
1762845189652784856,1762845189.652785,1762845189,651186148,1762845189.6511862,imu1_frame,-0.000244,0.165031,-0.178336,2.03,-2.16,-10.787,1.6e-05,-0.0001648,0.0005468,
1762845189676936215,1762845189.6769364,1762845189,676391465,1762845189.6763914,imu1_frame,-0.11676,0.042066,-0.215743,2.507,-0.492,-8.998,1.57e-05,-0.0001778,0.0005336,
1762845189701230408,1762845189.7012305,1762845189,700548491,1762845189.7005484,imu1_frame,-0.071202,-0.186327,0.203566,2.578,0.172,-9.621,1.46e-05,-0.00018010000000000001,0.0005362,
1762845189727949849,1762845189.7279499,1762845189,727230391,1762845189.7272303,imu1_frame,0.101834,-0.573292,0.460419,0.937,-1.338,-11.029,1.48e-05,-0.0001683,0.0005401000000000001,
1762845189751624750,1762845189.7516248,1762845189,751087042,1762845189.751087,imu1_frame,0.068842,-0.50602,0.359332,-0.153,-4.803,-15.598,2.1499999999999997e-05,-0.0001684,0.0005364,
1762845189776331318,1762845189.7763314,1762845189,775452652,1762845189.7754526,imu1_frame,-0.241243,0.221827,-0.565683,0.236,-4.864,-14.604,2.3800000000000003e-05,-0.0001649,0.0005312,
1762845189802411926,1762845189.802412,1762845189,801807010,1762845189.801807,imu1_frame,-0.466657,0.426204,-0.682554,1.382,0.556,-9.923,2.12e-05,-0.000185,0.0005459000000000001,
1762845189827664826,1762845189.827665,1762845189,826959827,1762845189.8269598,imu1_frame,-0.294595,0.134796,-0.34184,1.55,1.289,-7.982,2.1000000000000002e-05,-0.000192,0.0005313,
1762845189851869311,1762845189.8518693,1762845189,851274811,1762845189.8512747,imu1_frame,-0.095842,-0.07503,-0.142278,0.931,0.657,-8.389,2.3199999999999998e-05,-0.0001956,0.0005368,
1762845189878284627,1762845189.8782847,1762845189,877154628,1762845189.8771546,imu1_frame,-0.125588,-0.100072,0.046989,0.061,0.691,-9.469,2.12e-05,-0.0001838,0.0005365999999999999,
1762845189902672070,1762845189.9026723,1762845189,901920987,1762845189.901921,imu1_frame,0.025734,-0.146407,0.333085,-0.582,-1.282,-10.017,2.55e-05,-0.0001921,0.0005302,
1762845189927562512,1762845189.9275627,1762845189,926851471,1762845189.9268515,imu1_frame,0.043198,-0.100895,0.110527,-0.553,-3.237,-10.134,2.54e-05,-0.0001933,0.0005195999999999999,
1762845189951775038,1762845189.951775,1762845189,951236622,1762845189.9512367,imu1_frame,0.107995,-0.013414,-0.253427,0.308,-3.294,-9.313,2.66e-05,-0.0001898,0.0005409000000000001,
1762845189978775604,1762845189.9787757,1762845189,977754938,1762845189.9777548,imu1_frame,0.078446,0.09786,-0.439042,1.263,-0.977,-8.849,2.7799999999999998e-05,-0.0001874,0.0005275999999999999,
1762845190001792756,1762845190.001793,1762845190,1036548,1762845190.0010366,imu1_frame,0.006883,0.130517,-0.224011,1.554,0.634,-7.036,2.88e-05,-0.000191,0.0005357,
1762845190028997780,1762845190.028998,1762845190,28194114,1762845190.0281942,imu1_frame,0.089963,-0.032189,-0.047863,1.565,-1.837,-8.269,2.46e-05,-0.00017910000000000002,0.0005340000000000001,
1762845190053929722,1762845190.0539298,1762845190,53092848,1762845190.053093,imu1_frame,0.149114,-0.041716,-0.23313,1.494,-1.229,-7.916,3.01e-05,-0.00018040000000000002,0.0005290000000000001,
1762845190078554873,1762845190.078555,1762845190,77725082,1762845190.0777252,imu1_frame,-0.035372,0.058324,-0.188007,1.604,-0.76,-9.309,3.0200000000000002e-05,-0.000178,0.0005317,
1762845190102436399,1762845190.1024365,1762845190,101608983,1762845190.101609,imu1_frame,-0.057877,0.166042,0.022449,1.535,-0.786,-9.486,3.13e-05,-0.0001757,0.000541,
1762845190128125716,1762845190.128126,1762845190,127193008,1762845190.127193,imu1_frame,-0.044121,0.199359,-0.076037,1.742,-2.36,-9.813,2.68e-05,-0.00017910000000000002,0.0005248000000000001,
1762845190153974616,1762845190.1539745,1762845190,152993783,1762845190.1529937,imu1_frame,-0.0188,0.162489,-0.184329,2.046,-1.716,-8.825,2.33e-05,-0.0001897,0.0005368,
1762845190179870641,1762845190.1798708,1762845190,178378350,1762845190.1783783,imu1_frame,-0.032072,0.106837,-0.169308,2.123,-1.204,-8.442,2.14e-05,-0.0001708,0.0005365,
1762845190202622460,1762845190.2026227,1762845190,201660335,1762845190.2016604,imu1_frame,-0.081783,0.048618,-0.040094,2.244,-1.29,-9.879,2.57e-05,-0.00017910000000000002,0.0005301,
1762845190227373777,1762845190.2273738,1762845190,226564861,1762845190.226565,imu1_frame,-0.150159,0.129098,0.004246,1.933,-1.336,-9.334,2.34e-05,-0.00018260000000000002,0.0005287,
1762845190250843179,1762845190.2508433,1762845190,250353637,1762845190.2503536,imu1_frame,-0.106061,0.018889,-0.060248,1.687,-2.599,-9.922,2.2e-05,-0.0001968,0.0005435,
1762845190275459663,1762845190.2754598,1762845190,274958371,1762845190.2749584,imu1_frame,-0.121509,0.045964,-0.182774,1.798,-2.011,-10.946,2.3199999999999998e-05,-0.0001956,0.0005275,
1762845190301421938,1762845190.3014219,1762845190,300879396,1762845190.3008795,imu1_frame,-0.224095,0.16274,-0.178832,2.187,0.078,-10.594,1.9800000000000004e-05,-0.00019789999999999999,0.0005327,
1762845190326513505,1762845190.3265135,1762845190,325906505,1762845190.3259065,imu1_frame,-0.11453,0.110357,0.109683,2.376,1.428,-9.786,1.67e-05,-0.0001837,0.0005296999999999999,
1762845190351951155,1762845190.3519511,1762845190,351341989,1762845190.351342,imu1_frame,0.105023,-0.284056,0.654466,1.507,0.543,-10.154,1.9900000000000003e-05,-0.00019439999999999998,0.000522,
1762845190375794848,1762845190.3757951,1762845190,375525348,1762845190.3755252,imu1_frame,0.143756,-0.314499,0.656489,0.463,-4.733,-13.363,1.9699999999999998e-05,-0.00020030000000000002,0.0005287,
1762845190400472624,1762845190.4004726,1762845190,400057583,1762845190.4000576,imu1_frame,-0.24362,0.116363,-0.264552,-0.139,-6.765,-12.82,1.7500000000000002e-05,-0.00019910000000000001,0.0005353000000000001,
1762845190426587149,1762845190.4265873,1762845190,425966524,1762845190.4259665,imu1_frame,-0.449147,0.239847,-0.742074,0.404,-1.487,-11.348,2.19e-05,-0.0002039,0.0005262,
1762845190449809676,1762845190.4498098,1762845190,449594259,1762845190.4495943,imu1_frame,-0.271935,0.128838,-0.65424,0.599,1.217,-9.492,2.1600000000000003e-05,-0.00021690000000000001,0.0005303,
1762845190476207700,1762845190.4762077,1762845190,475762992,1762845190.475763,imu1_frame,0.151355,-0.049838,-0.24132,0.988,2.736,-9.259,2.19e-05,-0.0002051,0.0005302,
1762845190500579685,1762845190.5005796,1762845190,500341268,1762845190.5003412,imu1_frame,0.273437,-0.118929,0.035639,1.137,1.404,-9.14,2.6200000000000003e-05,-0.0002111,0.0005252,
1762845190525408294,1762845190.5254083,1762845190,524939877,1762845190.5249398,imu1_frame,0.318375,-0.082227,0.056844,1.183,-0.526,-8.423,2.7300000000000003e-05,-0.00021229999999999998,0.0005252,
1762845190550613111,1762845190.5506132,1762845190,550187986,1762845190.550188,imu1_frame,0.3831,-0.110652,-0.123794,1.312,-1.315,-8.464,2.51e-05,-0.0002099,0.0005411000000000001,
1762845190576598594,1762845190.5765986,1762845190,576147928,1762845190.576148,imu1_frame,0.334579,-0.027808,-0.175988,1.725,-0.189,-9.067,3.3e-05,-0.0002041,0.0005281,
1762845190600555745,1762845190.600556,1762845190,600288537,1762845190.6002886,imu1_frame,0.129124,0.122686,-0.042224,1.882,0.448,-8.433,3.1899999999999996e-05,-0.0002053,0.0005346999999999999,
1762845190631514642,1762845190.6315148,1762845190,630580184,1762845190.6305802,imu1_frame,0.171244,0.012432,0.065578,1.761,-0.505,-7.729,2.88e-05,-0.0001898,0.0005357,
1762845190651454879,1762845190.6514552,1762845190,650880129,1762845190.65088,imu1_frame,0.311886,-0.120203,-0.051629,1.719,-1.895,-8.264,2.88e-05,-0.0001922,0.0005277,
1762845190676228738,1762845190.676229,1762845190,675543822,1762845190.6755438,imu1_frame,0.273665,-0.155858,-0.193929,1.721,-1.087,-8.237,2.9900000000000002e-05,-0.000191,0.0005331,
1762845190702209388,1762845190.7022095,1762845190,701151430,1762845190.7011514,imu1_frame,0.030115,-0.090767,-0.128036,1.912,0.255,-9.622,3.11e-05,-0.0001863,0.0005451000000000001,
1762845190728368830,1762845190.728369,1762845190,727663455,1762845190.7276635,imu1_frame,-0.080839,0.001738,-0.061583,1.652,-0.915,-8.722,3.66e-05,-0.00019,0.0005308000000000001,
1762845190752514189,1762845190.7525144,1762845190,751911189,1762845190.7519112,imu1_frame,-0.011764,-0.070537,-0.151388,1.73,-1.346,-9.142,3.65e-05,-0.00019470000000000002,0.0005415,
1762845190776836298,1762845190.7768364,1762845190,775480632,1762845190.7754807,imu1_frame,0.065953,-0.136984,-0.29098,1.898,-0.95,-8.788,3.6700000000000004e-05,-0.00018410000000000003,0.0005401000000000001,
1762845190802184365,1762845190.8021846,1762845190,801614907,1762845190.801615,imu1_frame,0.037686,-0.18946,-0.227927,2.177,-0.319,-10.778,4.44e-05,-0.0001854,0.0005365,
1762845190827877515,1762845190.8278778,1762845190,827127099,1762845190.827127,imu1_frame,-0.019082,0.038679,-0.073526,2.291,-0.078,-10.973,4.5600000000000004e-05,-0.000183,0.0005338000000000001,
1762845190852445291,1762845190.8524454,1762845190,851502000,1762845190.851502,imu1_frame,0.022031,0.057253,-0.096349,2.215,-1.125,-10.341,4.21e-05,-0.0001924,0.0005497999999999999,
1762845190877498233,1762845190.8774981,1762845190,876850984,1762845190.876851,imu1_frame,0.075301,0.059311,-0.13294,2.064,-1.254,-10.195,4.45e-05,-0.0001807,0.0005338000000000001,
1762845190902704759,1762845190.9027047,1762845190,901899759,1762845190.9018998,imu1_frame,0.122036,0.000914,-0.212521,2.123,-1.971,-10.769,4.21e-05,-0.0001936,0.0005417999999999999,
1762845190928572659,1762845190.928573,1762845190,927086702,1762845190.9270866,imu1_frame,0.066329,0.161854,-0.449245,2.769,-1.577,-10.83,4.23e-05,-0.0001818,0.0005457,
1762845190952865352,1762845190.9528654,1762845190,951865394,1762845190.9518654,imu1_frame,-0.064724,0.053618,-0.244495,3.385,0.64,-9.916,4.45e-05,-0.0001842,0.0005311000000000001,
1762845190977686419,1762845190.9776866,1762845190,976816711,1762845190.9768167,imu1_frame,0.015393,-0.229005,0.100304,2.737,0.728,-10.015,4.43e-05,-0.00019250000000000002,0.0005406,
1762845191002985194,1762845191.0029852,1762845191,2216736,1762845191.0022168,imu1_frame,0.273109,-0.412935,0.430736,0.677,-1.812,-13.605,4.43e-05,-0.00019250000000000002,0.0005486,
1762845191031950217,1762845191.0319505,1762845191,30835301,1762845191.0308354,imu1_frame,-0.085781,0.016535,-0.108167,-0.063,-6.259,-15.868,4.7600000000000005e-05,-0.0001949,0.0005394,
1762845191053666453,1762845191.0536666,1762845191,52691579,1762845191.0526917,imu1_frame,-0.439224,0.525981,-0.859288,0.335,-2.417,-10.895,4.6399999999999996e-05,-0.0002008,0.0005448,
1762845191077970729,1762845191.0779707,1762845191,76722688,1762845191.0767226,imu1_frame,-0.458927,0.447871,-0.780026,0.742,0.38,-7.973,4.45e-05,-0.000183,0.0005417999999999999,
1762845191101758922,1762845191.1017592,1762845191,101037131,1762845191.101037,imu1_frame,-0.265533,0.174722,-0.360206,0.879,2.041,-8.595,4.52e-05,-0.0002043,0.0005314,
1762845191128848905,1762845191.128849,1762845191,127746697,1762845191.1277466,imu1_frame,0.001235,0.039877,0.052606,0.523,1.404,-8.586,4.4e-05,-0.0002067,0.000526,
1762845191154194055,1762845191.1541944,1762845191,152931306,1762845191.1529312,imu1_frame,0.013735,-0.069508,0.282509,0.274,-0.347,-8.359,4.5100000000000005e-05,-0.0002079,0.0005421,
1762845191177510499,1762845191.1775105,1762845191,176739166,1762845191.1767392,imu1_frame,0.079865,-0.115902,0.241383,0.424,-2.21,-8.737,4.29e-05,-0.0002078,0.000526,
1762845191202277983,1762845191.202278,1762845191,201323442,1762845191.2013235,imu1_frame,0.054254,-0.053783,-0.004767,0.81,-2.585,-9.379,4.41e-05,-0.0002043,0.0005314,
1762845191226109801,1762845191.2261097,1762845191,225475509,1762845191.2254755,imu1_frame,0.039917,0.066759,-0.151772,1.349,-1.731,-9.425,4.4200000000000004e-05,-0.00019600000000000002,0.0005339,
1762845191252831908,1762845191.2528322,1762845191,251546993,1762845191.251547,imu1_frame,0.01315,0.135259,-0.197625,1.765,-0.757,-8.498,4.55e-05,-0.0001878,0.0005232,
1762845191278266100,1762845191.2782662,1762845191,277292393,1762845191.2772925,imu1_frame,0.077959,0.124003,-0.207893,1.95,-0.636,-7.544,4.62e-05,-0.0002079,0.0005288000000000001,
1762845191302342085,1762845191.3023422,1762845191,301508585,1762845191.3015087,imu1_frame,0.177487,0.066249,-0.114465,1.922,-0.716,-8.346,4.31e-05,-0.0001948,0.0005352,
1762845191327346027,1762845191.327346,1762845191,326601153,1762845191.3266013,imu1_frame,0.177384,-0.01647,-0.043727,1.896,-0.902,-9.27,4.18e-05,-0.0002054,0.0005312,
1762845191352517594,1762845191.3525178,1762845191,351530595,1762845191.3515306,imu1_frame,0.02089,0.153906,-0.072903,1.931,-1.714,-9.481,4.31e-05,-0.00019950000000000002,0.0005325999999999999,
1762845191377448203,1762845191.3774483,1762845191,376825079,1762845191.376825,imu1_frame,-0.102615,0.176677,-0.093087,2.243,-0.724,-9.159,3.88e-05,-0.00019,0.0005282,
1762845191403283062,1762845191.403283,1762845191,402499729,1762845191.4024997,imu1_frame,-0.113981,0.183549,0.039479,2.319,-0.967,-9.126,4.22e-05,-0.0001889,0.0005296999999999999,
1762845191428632170,1762845191.4286323,1762845191,427901212,1762845191.4279013,imu1_frame,-0.120046,0.117175,0.013939,2.157,-1.887,-9.087,3.52e-05,-0.0002018,0.0005335,
1762845191451691364,1762845191.4516914,1762845191,451134447,1762845191.4511344,imu1_frame,-0.072917,0.10796,-0.048646,2.235,-1.501,-9.438,3.29e-05,-0.0002076,0.0005442,
1762845191477674514,1762845191.4776747,1762845191,477140806,1762845191.477141,imu1_frame,-0.125656,0.154398,0.096335,2.279,-0.448,-9.206,3.3e-05,-0.0002053,0.0005254,
1762845191503161122,1762845191.5031612,1762845191,502260873,1762845191.502261,imu1_frame,-0.126032,0.125802,0.247514,2.153,-1.194,-9.812,3.41e-05,-0.0002053,0.0005402,
1762845191527659356,1762845191.5276594,1762845191,526945565,1762845191.5269456,imu1_frame,-0.162156,0.099957,0.079494,2.297,-2.162,-9.914,2.6700000000000002e-05,-0.0001874,0.0005396,
1762845191554436173,1762845191.5544362,1762845191,553287298,1762845191.5532873,imu1_frame,-0.125024,-0.011113,0.076886,2.505,-0.143,-8.798,2.86e-05,-0.00020050000000000002,0.0005358,
1762845191576846658,1762845191.5768466,1762845191,576231117,1762845191.576231,imu1_frame,-0.030933,-0.26185,0.383157,2.595,1.02,-9.791,3.08e-05,-0.0002029,0.0005306,
1762845191601700725,1762845191.6017008,1762845191,601201559,1762845191.6012015,imu1_frame,0.088235,-0.479112,0.729255,1.695,-0.429,-12.194,2.85e-05,-0.0002064,0.0005439,
1762845191625916335,1762845191.6259165,1762845191,625318377,1762845191.6253183,imu1_frame,-0.130132,-0.286509,0.685223,0.979,-3.242,-13.855,2.97e-05,-0.0002017,0.0005266,
1762845191652142901,1762845191.652143,1762845191,651220860,1762845191.6512208,imu1_frame,-0.360902,0.237567,-0.074432,0.613,-4.492,-13.866,2.6200000000000003e-05,-0.0002099,0.0005372,
1762845191676909844,1762845191.67691,1762845191,676353677,1762845191.6763537,imu1_frame,-0.557855,0.359551,-0.276516,0.933,-0.259,-11.086,2.52e-05,-0.0002075,0.0005304,
1762845191702614910,1762845191.7026148,1762845191,701932203,1762845191.7019322,imu1_frame,-0.176242,0.136554,-0.041774,0.88,1.743,-8.322,2.72e-05,-0.0002146,0.0005172999999999999,
1762845191727392061,1762845191.7273922,1762845191,726726812,1762845191.7267268,imu1_frame,0.163673,-0.229878,0.347661,0.87,1.397,-9.234,2.72e-05,-0.00021820000000000002,0.0005213,
1762845191751871504,1762845191.7518716,1762845191,750779754,1762845191.7507799,imu1_frame,0.117406,-0.08513,0.35588,0.792,-1.04,-9.519,2.49e-05,-0.00022170000000000002,0.0005319000000000001,
1762845191776453030,1762845191.7764533,1762845191,775904155,1762845191.7759042,imu1_frame,0.084516,-0.106481,0.168008,1.006,-1.687,-8.795,2.6e-05,-0.00022170000000000002,0.0005213,
1762845191805381594,1762845191.8053818,1762845191,804838636,1762845191.8048387,imu1_frame,0.179878,-0.168693,0.021587,1.234,-1.84,-8.806,2.3800000000000003e-05,-0.0002181,0.0005291,
1762845191825509206,1762845191.8255093,1762845191,825300915,1762845191.825301,imu1_frame,0.24057,-0.124109,-0.10434,1.688,-1.057,-9.312,2.85e-05,-0.0002064,0.0005292,
1762845191852089356,1762845191.8520894,1762845191,851548773,1762845191.8515487,imu1_frame,0.206476,0.008838,-0.029987,2.107,0.313,-8.632,3.08e-05,-0.0002029,0.0005226,
1762845191876529673,1762845191.8765297,1762845191,875910174,1762845191.8759103,imu1_frame,0.174418,0.005684,0.076214,2.132,-0.091,-8.075,2.97e-05,-0.0002017,0.0005172,
1762845191903245573,1762845191.9032457,1762845191,901968782,1762845191.9019687,imu1_frame,0.152596,-0.055197,0.027266,2.058,-0.641,-8.423,2.96e-05,-0.0002076,0.0005306,
1762845191927570724,1762845191.9275708,1762845191,926927808,1762845191.9269278,imu1_frame,0.129105,-0.066765,0.07404,1.881,-0.269,-8.663,2.7300000000000003e-05,-0.0002099,0.0005225,
1762845191951939167,1762845191.951939,1762845191,951242750,1762845191.9512427,imu1_frame,0.11416,-0.0068,0.095997,1.79,-1.136,-9.389,2.8400000000000003e-05,-0.0002099,0.0005319000000000001,
1762845191976693817,1762845191.9766939,1762845191,976055984,1762845191.976056,imu1_frame,-0.098258,0.124058,0.014502,1.839,-1.247,-9.553,2.76e-05,-0.0001957,0.0005304,
1762845192002339634,1762845192.0023396,1762845192,1321676,1762845192.0013218,imu1_frame,-0.069405,0.100814,-0.045254,1.843,-1.46,-9.064,2.86e-05,-0.00019930000000000002,0.0005225,
1762845192031449740,1762845192.03145,1762845192,29784033,1762845192.029784,imu1_frame,0.027893,0.033345,-0.144474,2.136,-0.737,-9.656,2.64e-05,-0.0001992,0.0005197000000000001,
1762845192052247352,1762845192.0522475,1762845192,50959103,1762845192.050959,imu1_frame,-0.038578,0.103175,-0.071338,2.309,0.206,-9.838,2.52e-05,-0.0002075,0.0005411000000000001,
1762845192078344252,1762845192.0783443,1762845192,77302086,1762845192.077302,imu1_frame,-0.011488,0.12052,0.101855,2.243,0.151,-9.789,2.6300000000000002e-05,-0.0002075,0.0005291,
1762845192101962028,1762845192.101962,1762845192,101394737,1762845192.1013947,imu1_frame,0.054702,0.069685,0.090919,1.928,-1.354,-9.992,2.31e-05,-0.0001992,0.0005329000000000001,
1762845192133961216,1762845192.1339614,1762845192,131329843,1762845192.1313298,imu1_frame,0.101142,0.088908,-0.045879,2.204,-1.067,-10.455,2.1000000000000002e-05,-0.0001932,0.0005327,
1762845192152741162,1762845192.1527412,1762845192,152059288,1762845192.1520593,imu1_frame,0.121333,0.091678,0.010182,2.794,-0.129,-9.507,2.08e-05,-0.00020150000000000002,0.0005314,
1762845192178124063,1762845192.1781242,1762845192,177303771,1762845192.1773038,imu1_frame,0.2084,-0.068959,0.203498,3.115,0.421,-8.969,1.9800000000000004e-05,-0.0001967,0.0005287,
1762845192202923047,1762845192.202923,1762845192,202181839,1762845192.2021818,imu1_frame,0.184959,-0.140155,0.322276,3.156,-1.2,-9.63,1.7500000000000002e-05,-0.00020380000000000002,0.0005433,
1762845192228230780,1762845192.2282307,1762845192,227493531,1762845192.2274935,imu1_frame,0.148263,-0.452832,0.362255,2.109,-0.669,-9.542,2.08e-05,-0.0002027,0.0005328,
1762845192251958140,1762845192.2519581,1762845192,251238307,1762845192.2512383,imu1_frame,0.103233,-0.390029,0.549189,0.723,-2.172,-14.671,2.31e-05,-0.0001992,0.0005409000000000001,
1762845192277192457,1762845192.2771926,1762845192,276400833,1762845192.2764008,imu1_frame,-0.105236,-0.063271,0.121648,0.387,-4.606,-14.671,2.33e-05,-0.0001885,0.0005368,
1762845192302689774,1762845192.3026898,1762845192,301910524,1762845192.3019106,imu1_frame,-0.350665,0.293119,-0.243552,0.702,-1.18,-11.366,2.55e-05,-0.0001921,0.0005302,
1762845192327389633,1762845192.3273897,1762845192,326552175,1762845192.3265522,imu1_frame,-0.475192,0.26982,-0.132258,1.0,0.658,-9.701,2.0700000000000002e-05,-0.0002062,0.0005262,
1762845192352359200,1762845192.3523593,1762845192,351226659,1762845192.3512266,imu1_frame,-0.12241,0.038557,0.093821,0.684,1.043,-8.506,1.8599999999999998e-05,-0.00020030000000000002,0.0005380000000000001,
1762845192378107309,1762845192.3781075,1762845192,377286976,1762845192.377287,imu1_frame,0.157877,-0.039499,0.41398,0.331,0.161,-9.366,1.73e-05,-0.0002097,0.0005207,
1762845192400826669,1762845192.4008267,1762845192,400332836,1762845192.400333,imu1_frame,0.049421,0.047824,0.41738,0.342,-1.384,-9.273,1.74e-05,-0.0002085,0.0005354,
1762845192428417568,1762845192.4284177,1762845192,427469819,1762845192.4274697,imu1_frame,0.063228,0.036293,0.273087,0.784,-2.018,-8.705,1.33e-05,-0.0001907,0.0005336,
1762845192451575678,1762845192.4515758,1762845192,451131637,1762845192.4511316,imu1_frame,0.072967,-0.009278,0.035394,1.156,-2.261,-8.106,1.43e-05,-0.0001943,0.000523,
1762845192476824579,1762845192.4768248,1762845192,475931704,1762845192.4759316,imu1_frame,0.013288,-0.000565,-0.138641,1.51,-1.389,-8.501,1.54e-05,-0.0001967,0.0005244,
1762845192501923062,1762845192.501923,1762845192,501133938,1762845192.501134,imu1_frame,0.04997,0.021676,-0.215359,1.733,-1.164,-8.313,1.43e-05,-0.0001931,0.0005390000000000001,
1762845192528484045,1762845192.528484,1762845192,527651421,1762845192.5276513,imu1_frame,0.034952,-0.070821,-0.14187,2.053,0.171,-8.181,1.4200000000000001e-05,-0.00020260000000000002,0.0005283999999999999,
1762845192551474947,1762845192.551475,1762845192,550617656,1762845192.5506177,imu1_frame,0.070709,-0.067492,0.228582,2.107,0.127,-9.524,1.6400000000000002e-05,-0.0002002,0.0005339,
1762845192576411389,1762845192.5764115,1762845192,575821015,1762845192.575821,imu1_frame,-0.125246,0.070687,0.316401,1.733,-1.852,-9.247,1.35e-05,-0.0001813,0.0005362,
1762845192602083206,1762845192.6020834,1762845192,601533165,1762845192.6015332,imu1_frame,-0.115419,0.058719,0.270012,1.823,-2.047,-8.72,1.2200000000000002e-05,-0.0001871,0.0005254999999999999,
1762845192627764440,1762845192.6277647,1762845192,627072232,1762845192.6270723,imu1_frame,-0.070796,-0.018181,0.204354,2.065,-2.636,-8.234,1.43e-05,-0.0001955,0.0005256999999999999,
1762845192650932925,1762845192.650933,1762845192,650351383,1762845192.6503513,imu1_frame,-0.037904,0.001504,0.260485,2.51,-0.936,-9.861,1.44e-05,-0.0001919,0.0005377,
1762845192677713991,1762845192.677714,1762845192,676681075,1762845192.676681,imu1_frame,-0.183666,0.076145,0.405845,2.299,-1.676,-9.272,9.900000000000002e-06,-0.0001954,0.0005268,
1762845192700887559,1762845192.7008877,1762845192,700348976,1762845192.700349,imu1_frame,-0.153759,0.083445,0.395374,2.014,-2.445,-9.271,5.5e-06,-0.00019170000000000002,0.0005279000000000001,
1762845192726438209,1762845192.7264383,1762845192,725481835,1762845192.7254817,imu1_frame,-0.104867,0.025372,0.217287,1.52,-2.147,-9.567,3.3e-06,-0.0001905,0.0005317,
1762845192754285858,1762845192.754286,1762845192,753230776,1762845192.7532308,imu1_frame,-0.160305,0.057617,0.376032,1.158,-0.456,-11.18,3.3e-06,-0.00019170000000000002,0.0005251,
1762845192777413052,1762845192.7774131,1762845192,776467177,1762845192.776467,imu1_frame,-0.218801,0.257135,0.443664,0.956,-1.77,-11.515,8.000000000000001e-07,-0.00020349999999999999,0.0005251,
1762845192802366369,1762845192.8023665,1762845192,801363745,1762845192.8013637,imu1_frame,-0.200351,0.27474,0.347713,1.225,-0.354,-10.417,-6.9e-06,-0.0001998,0.0005327,
1762845192834727098,1762845192.8347273,1762845192,834259015,1762845192.834259,imu1_frame,-0.067963,0.142073,0.568019,1.71,1.113,-10.109,-1.24e-05,-0.0001997,0.0005244,
1762845192850635421,1762845192.8506355,1762845192,850341546,1762845192.8503416,imu1_frame,0.051856,-0.053118,0.941272,1.834,1.914,-9.83,-1.58e-05,-0.0002044,0.0005269000000000001,
1762845192879896861,1762845192.8798969,1762845192,876988154,1762845192.8769882,imu1_frame,0.200884,-0.181447,1.263369,1.132,-0.915,-10.901,-1.87e-05,-0.0001795,0.0005278,
1762845192901863846,1762845192.901864,1762845192,900938139,1762845192.900938,imu1_frame,0.051049,-0.06386,0.942946,0.545,-4.017,-12.041,-2.4400000000000004e-05,-0.00019,0.000521,
1762845192928198121,1762845192.9281983,1762845192,927063247,1762845192.9270632,imu1_frame,-0.122861,0.14262,0.27313,0.38,-3.163,-10.144,-2.68e-05,-0.0001994,0.000521,
1762845192953580063,1762845192.9535801,1762845192,952180522,1762845192.9521806,imu1_frame,0.021149,-0.075979,0.187469,0.719,1.115,-9.349,-2.77e-05,-0.0001864,0.0005314,
1762845192983377794,1762845192.983378,1762845192,980831962,1762845192.9808319,imu1_frame,0.2599,-0.259992,0.513288,0.663,1.799,-11.284,-2.57e-05,-0.0001959,0.0005235999999999999,
1762845193002315032,1762845193.002315,1762845193,1544324,1762845193.0015442,imu1_frame,0.210443,-0.056138,0.619277,0.36,0.422,-11.058,-2.88e-05,-0.0001887,0.0005274,
1762845193029733931,1762845193.029734,1762845193,27940099,1762845193.02794,imu1_frame,0.217295,0.03042,0.603664,0.482,-0.357,-10.117,-3.2e-05,-0.000178,0.0005311000000000001,
1762845193053869874,1762845193.05387,1762845193,52903416,1762845193.0529034,imu1_frame,0.213932,0.152085,0.440823,0.85,-0.797,-9.603,-3.4200000000000005e-05,-0.0001792,0.000523,
1762845193078704858,1762845193.078705,1762845193,77354108,1762845193.0773542,imu1_frame,0.233518,0.249589,0.376993,1.242,0.188,-8.177,-3.6400000000000004e-05,-0.0001803,0.0005256,
1762845193102399217,1762845193.1023993,1762845193,101511760,1762845193.1015117,imu1_frame,0.298587,0.148736,0.492601,1.456,0.819,-7.309,-4.4e-05,-0.0001684,0.0005290000000000001,
1762845193129712450,1762845193.1297126,1762845193,128655159,1762845193.1286552,imu1_frame,0.182437,0.003622,0.717436,1.606,0.005,-8.715,-4.52e-05,-0.0001731,0.0005290000000000001,
1762845193154992892,1762845193.154993,1762845193,152481352,1762845193.1524813,imu1_frame,0.157004,0.065916,0.712793,1.585,-0.591,-8.341,-5.0700000000000006e-05,-0.0001706,0.0005381,
1762845193177056544,1762845193.1770566,1762845193,176355420,1762845193.1763554,imu1_frame,0.027547,0.101673,0.712477,1.669,-0.733,-8.601,-5.6e-05,-0.0001575,0.0005323,
1762845193201807903,1762845193.201808,1762845193,200901946,1762845193.200902,imu1_frame,-0.071101,0.074402,0.737486,1.538,-0.987,-8.725,-5.47e-05,-0.0001492,0.0005243,
1762845193227387637,1762845193.2273877,1762845193,226551137,1762845193.226551,imu1_frame,-0.02137,0.109783,0.862635,1.723,-0.56,-10.069,-6.05e-05,-0.0001633,0.0005295,
1762845193252509079,1762845193.2525094,1762845193,251737288,1762845193.2517374,imu1_frame,-0.11084,0.174721,0.829441,1.567,-1.862,-9.675,-6.800000000000001e-05,-0.00015140000000000002,0.0005316,
1762845193278107229,1762845193.2781072,1762845193,277055938,1762845193.277056,imu1_frame,-0.137055,0.230072,0.741697,1.905,-1.63,-10.518,-6.82e-05,-0.0001573,0.0005250000000000001,
1762845193302781380,1762845193.3027816,1762845193,301756839,1762845193.3017569,imu1_frame,-0.120668,0.349457,0.674173,2.054,-1.134,-10.285,-8.04e-05,-0.0001594,0.0005337,
1762845193327919364,1762845193.3279195,1762845193,326976864,1762845193.3269768,imu1_frame,-0.087114,0.388575,0.761226,2.052,-0.384,-9.711,-8.57e-05,-0.0001451,0.0005253,
1762845193353465847,1762845193.353466,1762845193,352477515,1762845193.3524776,imu1_frame,-0.038198,0.330316,0.839022,1.869,-1.548,-9.858,-8.9e-05,-0.0001427,0.0005224,
1762845193377833540,1762845193.3778336,1762845193,376911916,1762845193.3769119,imu1_frame,-0.012816,0.38026,0.773119,2.045,-1.884,-10.3,-9.790000000000001e-05,-0.0001484,0.000518,
1762845193402306733,1762845193.402307,1762845193,401466608,1762845193.4014666,imu1_frame,-0.125276,0.438345,0.644298,2.473,-1.936,-9.206,-0.0001067,-0.0001447,0.0005335,
1762845193427250550,1762845193.4272506,1762845193,426319134,1762845193.4263191,imu1_frame,-0.226154,0.213336,0.685726,3.133,-0.565,-7.547,-0.0001113,-0.0001494,0.0005187000000000001,
1762845193454964240,1762845193.4549644,1762845193,453662574,1762845193.4536626,imu1_frame,-0.201846,-0.263112,1.046634,2.169,0.698,-7.375,-0.0001146,-0.0001505,0.0005238,
1762845193478759058,1762845193.4787593,1762845193,477916642,1762845193.4779167,imu1_frame,0.017816,-0.644556,1.563758,0.082,-1.926,-13.046,-0.0001155,-0.0001375,0.0005235999999999999,
1762845193503408209,1762845193.5034082,1762845193,502331376,1762845193.5023313,imu1_frame,-0.846119,-0.235941,1.026122,-0.295,-7.63,-16.804,-0.0001132,-0.0001363,0.0005143999999999999,
1762845193528250818,1762845193.528251,1762845193,527388694,1762845193.5273888,imu1_frame,-0.74971,0.623699,-0.086585,0.718,-3.675,-12.38,-0.00011690000000000001,-0.00015160000000000003,0.0005143999999999999,
1762845193552206386,1762845193.5522065,1762845193,551461803,1762845193.5514617,imu1_frame,-0.763119,0.692828,-0.100253,1.559,1.239,-8.648,-0.00012690000000000002,-0.0001538,0.0005192,
1762845193578129078,1762845193.5781293,1762845193,577387036,1762845193.577387,imu1_frame,-0.240541,0.161361,0.482732,1.16,2.333,-7.604,-0.0001282,-0.0001632,0.0005046,
1762845193602436270,1762845193.6024365,1762845193,601624521,1762845193.6016245,imu1_frame,0.033461,-0.120154,0.795822,0.127,0.255,-10.342,-0.0001326,-0.000162,0.000515,
1762845193626735255,1762845193.6267354,1762845193,626113172,1762845193.6261132,imu1_frame,0.010572,-0.055286,0.872832,-0.694,-1.153,-10.483,-0.0001367,-0.0001453,0.000508,
1762845193652359780,1762845193.6523597,1762845193,650646406,1762845193.6506464,imu1_frame,-0.072116,0.007713,0.686961,-0.797,-2.641,-10.695,-0.0001367,-0.0001477,0.0005026000000000001,
1762845193679567054,1762845193.679567,1762845193,676838347,1762845193.6768384,imu1_frame,-0.010072,0.080091,0.462778,0.167,-2.475,-9.764,-0.0001366,-0.0001394,0.0004971999999999999,
1762845193700617749,1762845193.7006178,1762845193,700250041,1762845193.7002501,imu1_frame,0.094485,0.142147,0.374149,1.263,-0.709,-9.722,-0.0001444,-0.000144,0.0005049000000000001,
1762845193726303232,1762845193.7263033,1762845193,725843441,1762845193.7258434,imu1_frame,0.11852,0.234494,0.614089,1.754,0.642,-8.275,-0.0001478,-0.0001475,0.0004994,
1762845193752551507,1762845193.7525516,1762845193,752047216,1762845193.7520473,imu1_frame,0.020359,0.156981,0.893272,1.61,-0.636,-8.104,-0.000152,-0.00013089999999999998,0.0005082999999999999,
1762845193775185242,1762845193.7751853,1762845193,774790118,1762845193.77479,imu1_frame,0.07466,0.112628,0.892621,1.314,-2.086,-8.28,-0.000156,-0.00011070000000000001,0.0005052,
1762845193800414351,1762845193.8004146,1762845193,800188851,1762845193.8001888,imu1_frame,0.11782,0.044851,0.863864,1.053,-2.214,-8.565,-0.00015840000000000003,-0.00012130000000000001,0.0005039,
1762845193825281793,1762845193.8252819,1762845193,825025002,1762845193.825025,imu1_frame,0.044677,0.075538,1.026143,1.001,-1.439,-9.737,-0.0001605,-0.0001153,0.0005024,
1762845193850737235,1762845193.8507373,1762845193,850532736,1762845193.8505328,imu1_frame,-0.219484,0.224189,0.988699,0.964,-3.585,-9.196,-0.0001657,-9.87e-05,0.0005112,
1762845193875655178,1762845193.8756552,1762845193,875472053,1762845193.875472,imu1_frame,-0.175606,0.169911,0.76802,1.345,-3.583,-8.598,-0.0001714,-0.00010449999999999999,0.0004977,
1762845193899956037,1762845193.899956,1762845193,899763120,1762845193.899763,imu1_frame,-0.110741,0.037474,0.620993,1.876,-2.327,-8.57,-0.0001749,-0.0001115,0.0005096,
1762845193924729938,1762845193.92473,1762845193,924571354,1762845193.9245713,imu1_frame,-0.149784,0.105382,0.757793,2.206,-0.901,-9.893,-0.00017460000000000002,-9.61e-05,0.0005081,
1762845193949792088,1762845193.9497921,1762845193,949588297,1762845193.9495883,imu1_frame,-0.309676,0.116788,1.03676,2.084,-0.502,-10.371,-0.0001766,-8.66e-05,0.0004999000000000001,
1762845193974748322,1762845193.9747486,1762845193,974564406,1762845193.9745643,imu1_frame,-0.309778,0.234938,1.02,1.678,-3.033,-10.191,-0.0001846,-9.95e-05,0.0004996,
1762845194000715389,1762845194.0007153,1762845194,492097,1762845194.000492,imu1_frame,-0.359751,0.324924,0.715973,1.529,-2.802,-10.467,-0.00019009999999999999,-9.470000000000001e-05,0.0005113,
1762845194025790331,1762845194.0257902,1762845194,25323915,1762845194.0253239,imu1_frame,-0.369819,0.328732,0.630716,1.912,-1.156,-10.224,-0.0001946,-9.810000000000001e-05,0.0004964,
1762845194050507273,1762845194.0505073,1762845194,50331690,1762845194.0503316,imu1_frame,-0.362999,0.265038,0.878868,1.733,0.282,-9.472,-0.00020119999999999998,-9.56e-05,0.0004907000000000001,
1762845194074716341,1762845194.0747166,1762845194,74568050,1762845194.074568,imu1_frame,-0.3194,-0.060912,1.35323,0.99,0.206,-9.846,-0.0002052,-7.55e-05,0.0004956,
1762845194100464366,1762845194.1004646,1762845194,100283200,1762845194.1002831,imu1_frame,-0.117113,-0.268186,1.397607,0.425,-3.178,-12.039,-0.0002064,-7.9e-05,0.0004915,
1762845194126298225,1762845194.1262982,1762845194,126110558,1762845194.1261106,imu1_frame,-0.22316,0.181442,0.964295,0.592,-3.965,-13.287,-0.0002053,-8.14e-05,0.00048499999999999997,
1762845194200836552,1762845194.2008367,1762845194,199891136,1762845194.199891,imu1_frame,-0.329454,0.4493,0.51622,1.034,-1.727,-10.1,-0.0002142,-8.24e-05,0.0005005,
1762845194202804467,1762845194.2028046,1762845194,201780426,1762845194.2017803,imu1_frame,-0.191615,0.384425,0.475812,1.664,0.596,-8.284,-0.0002163,-7.41e-05,0.0004816,
1762845194225959827,1762845194.22596,1762845194,225227869,1762845194.2252278,imu1_frame,0.094643,0.229215,0.665235,1.8,2.034,-7.199,-0.000223,-7.75e-05,0.000488,
1762845194251590186,1762845194.2515903,1762845194,250757853,1762845194.250758,imu1_frame,0.218839,-0.088975,0.953888,1.459,1.327,-7.455,-0.0002259,-5.5e-05,0.0004903,
1762845194278222168,1762845194.278222,1762845194,276419086,1762845194.2764192,imu1_frame,0.176467,-0.197386,1.005588,1.149,-1.002,-9.634,-0.00022370000000000002,-5.74e-05,0.0004824,
1762845194303965610,1762845194.3039658,1762845194,301696987,1762845194.301697,imu1_frame,0.075766,-0.080841,0.826211,1.046,-1.301,-10.781,-0.00022339999999999998,-4.2000000000000004e-05,0.0004849,
1762845194325733304,1762845194.3257334,1762845194,325233805,1762845194.3252337,imu1_frame,0.023194,0.036152,0.71952,1.296,-1.485,-10.21,-0.00022689999999999999,-4.9000000000000005e-05,0.0005008,
1762845194352229704,1762845194.3522298,1762845194,351585705,1762845194.3515856,imu1_frame,0.066868,0.066108,0.538089,1.715,-2.108,-9.495,-0.0002257,-4.67e-05,0.0004795,
1762845194377556771,1762845194.3775568,1762845194,376854980,1762845194.376855,imu1_frame,0.093457,-0.005629,0.310797,2.112,-1.602,-9.189,-0.00022789999999999998,-4.43e-05,0.000494,
1762845194402277047,1762845194.4022772,1762845194,401543839,1762845194.4015439,imu1_frame,0.039088,0.043587,0.169324,2.438,-0.955,-10.014,-0.0002287,-2.77e-05,0.0004884,
1762845194427261114,1762845194.4272614,1762845194,426644156,1762845194.426644,imu1_frame,-0.213307,0.260482,0.15051,2.604,0.589,-9.231,-0.0002244,-3.61e-05,0.0004834,
1762845194450069433,1762845194.4500697,1762845194,449760141,1762845194.4497602,imu1_frame,-0.259239,0.249029,0.444096,2.405,0.576,-8.218,-0.000229,-4.07e-05,0.0004859,
1762845194481616662,1762845194.4816167,1762845194,480782746,1762845194.4807827,imu1_frame,-0.033578,0.0883,0.531688,2.208,-0.295,-8.326,-0.00023449999999999998,-3.9399999999999995e-05,0.0004896,
1762845194501052108,1762845194.5010524,1762845194,500603567,1762845194.5006037,imu1_frame,-0.008716,0.044443,0.478652,2.184,-0.71,-9.013,-0.0002322,-3.5900000000000005e-05,0.0004844,
1762845194525505509,1762845194.5255055,1762845194,525222468,1762845194.5252225,imu1_frame,-0.120658,0.137037,0.538909,2.35,-0.579,-9.356,-0.0002388,-3.34e-05,0.000492,
1762845194551660284,1762845194.5516603,1762845194,551167951,1762845194.551168,imu1_frame,-0.102585,0.121433,0.591173,2.724,-0.449,-8.739,-0.0002351,-1.34e-05,0.0004866,
1762845194576323268,1762845194.5763235,1762845194,575859018,1762845194.575859,imu1_frame,0.001713,0.038095,0.606035,2.823,-1.983,-9.679,-0.0002341,-2.05e-05,0.0004801,
1762845194601643960,1762845194.601644,1762845194,601060461,1762845194.6010604,imu1_frame,-0.09615,0.145394,0.373755,3.136,-1.683,-10.134,-0.00023730000000000002,-1.4500000000000002e-05,0.00048120000000000004,
1762845194627284319,1762845194.6272843,1762845194,626448444,1762845194.6264484,imu1_frame,-0.250373,0.303275,0.399033,3.198,-0.361,-9.544,-0.0002419,-2.1600000000000003e-05,0.0004944,
1762845194652459886,1762845194.6524599,1762845194,651810636,1762845194.6518106,imu1_frame,-0.20557,0.212281,0.590637,2.693,-1.512,-9.131,-0.00024410000000000002,-2.2700000000000003e-05,0.0004729,
1762845194676721078,1762845194.6767213,1762845194,676043787,1762845194.6760437,imu1_frame,-0.12653,0.09976,0.387283,2.633,-2.533,-10.357,-0.00024410000000000002,-1.92e-05,0.0004849,
1762845194711219348,1762845194.7112195,1762845194,706084185,1762845194.7060843,imu1_frame,-0.13939,0.236525,0.20134,3.199,-1.187,-10.72,-0.000246,-4.9e-06,0.00048459999999999996,
1762845194738974122,1762845194.7389743,1762845194,738204914,1762845194.738205,imu1_frame,-0.226926,0.287741,0.476728,3.679,1.013,-9.869,-0.0002484,-1.32e-05,0.0004752,
