bag_stamp_ns,bag_t_sec,ros_header_sec,ros_header_nanosec,ros_header_t_sec,frame_id,gyro_x,gyro_y,gyro_z,acc_x,acc_y,acc_z,mag_x,mag_y,mag_z,raw_vnymr
1762844106148115127,1762844106.1481154,1762844106,147660919,1762844106.147661,imu1_frame,0.174136,-0.160772,-0.420952,1.997,-2.022,-11.841,4.27e-05,-0.0001026,0.0006315,
1762844106172961194,1762844106.1729615,1762844106,172487361,1762844106.1724873,imu1_frame,-0.040954,0.0433,-0.26424,3.373,-0.109,-9.23,4.39e-05,-0.00010150000000000001,0.0006274999999999999,
1762844106197241387,1762844106.1972415,1762844106,196821595,1762844106.1968217,imu1_frame,0.105337,-0.31781,-0.086791,3.522,-0.6,-8.34,4.94e-05,-0.0001039,0.0006278000000000001,
1762844106222228079,1762844106.222228,1762844106,221885496,1762844106.2218854,imu1_frame,0.835621,-0.679305,-0.057264,2.932,-1.492,-9.869,5.15e-05,-0.00010630000000000001,0.00064,
1762844106247467355,1762844106.2474673,1762844106,246785438,1762844106.2467854,imu1_frame,0.702791,-0.374071,0.343834,2.663,1.913,-10.272,5.96e-05,-9.23e-05,0.0006282,
1762844106273371046,1762844106.2733712,1762844106,272811713,1762844106.2728117,imu1_frame,-0.037964,0.039283,0.748958,1.023,-1.91,-9.646,5.97e-05,-8.76e-05,0.0006429000000000001,
1762844106299697071,1762844106.2996972,1762844106,297774030,1762844106.297774,imu1_frame,-0.270437,0.091575,0.287168,0.043,-4.875,-8.821,5.86e-05,-8.280000000000001e-05,0.0006387000000000001,
1762844106322726139,1762844106.3227262,1762844106,322240556,1762844106.3222406,imu1_frame,0.159367,-0.144512,-0.189352,0.089,-4.37,-9.484,6.31e-05,-8.17e-05,0.0006270000000000001,
1762844106347168207,1762844106.3471684,1762844106,346839499,1762844106.3468394,imu1_frame,0.002872,-0.141328,-0.093415,0.762,-2.273,-10.347,5.97e-05,-8.52e-05,0.0006322,
1762844106371974191,1762844106.3719742,1762844106,371786024,1762844106.371786,imu1_frame,-0.162531,-0.041078,-0.17443,1.032,-3.313,-9.91,6.08e-05,-8.52e-05,0.0006442,
1762844106397394675,1762844106.397395,1762844106,397080383,1762844106.3970804,imu1_frame,-0.30978,-0.055981,-0.546044,1.387,-3.226,-9.186,6.510000000000001e-05,-9.24e-05,0.0006352,
1762844106421857409,1762844106.4218576,1762844106,421675742,1762844106.4216757,imu1_frame,-0.400644,-0.014929,-0.531539,1.648,-1.331,-9.108,6.72e-05,-0.0001007,0.0006421,
1762844106446786518,1762844106.4467866,1762844106,446650185,1762844106.4466503,imu1_frame,-0.228723,-0.064441,-0.362314,1.548,-1.692,-8.658,6.72e-05,-9.719999999999999e-05,0.0006353999999999999,
1762844106471710252,1762844106.4717102,1762844106,471568710,1762844106.4715688,imu1_frame,0.288639,-0.35212,-0.286034,1.588,-1.507,-9.283,6.950000000000001e-05,-9.25e-05,0.0006301,
1762844106496782402,1762844106.4967825,1762844106,496648236,1762844106.4966483,imu1_frame,-0.207766,0.072488,-0.170078,1.966,-0.64,-10.931,7.61e-05,-9.61e-05,0.0006278000000000001,
1762844106521712886,1762844106.521713,1762844106,521575095,1762844106.5215752,imu1_frame,-0.374262,0.355246,0.03903,1.737,-1.435,-9.778,7.049999999999999e-05,-0.000102,0.0006409,
1762844106548088411,1762844106.5480883,1762844106,547622453,1762844106.5476224,imu1_frame,-0.122801,-0.041694,-0.171042,1.853,-1.855,-8.751,7.25e-05,-0.00010910000000000001,0.0006331,
1762844106572526395,1762844106.5725265,1762844106,572096437,1762844106.5720963,imu1_frame,-0.107387,-0.147956,-0.073635,1.591,-0.88,-10.236,7.14e-05,-0.0001103,0.0006424,
1762844106597403671,1762844106.5974038,1762844106,596998879,1762844106.596999,imu1_frame,-0.184332,-0.037078,-0.065252,0.686,-2.203,-9.875,7.38e-05,-0.0001032,0.0006344,
1762844106622380238,1762844106.6223805,1762844106,622037238,1762844106.6220372,imu1_frame,-0.386621,0.097692,-0.208758,1.037,-2.208,-10.36,7.59e-05,-0.00010910000000000001,0.0006213,
1762844106648218388,1762844106.6482184,1762844106,647551514,1762844106.6475515,imu1_frame,-0.29392,0.038765,-0.257064,1.767,-1.17,-9.778,7.47e-05,-0.000115,0.0006199,
1762844106673834663,1762844106.6738348,1762844106,673035455,1762844106.6730354,imu1_frame,-0.07092,-0.130417,-0.090416,2.352,-0.312,-9.871,7.46e-05,-0.00011980000000000001,0.0006347000000000001,
1762844106697997189,1762844106.6979973,1762844106,697546815,1762844106.6975467,imu1_frame,0.060065,-0.237486,0.198658,1.901,-0.341,-9.238,8e-05,-0.0001234,0.0006257000000000001,
1762844106722919423,1762844106.7229195,1762844106,722436882,1762844106.722437,imu1_frame,-0.058131,-0.139082,0.159887,1.473,-1.673,-10.183,7.89e-05,-0.0001234,0.0006336000000000001,
1762844106748933365,1762844106.7489336,1762844106,748264615,1762844106.7482646,imu1_frame,-0.038361,-0.117707,-0.046795,1.403,-1.77,-10.251,8.14e-05,-0.0001104,0.0006336000000000001,
1762844106773625766,1762844106.7736259,1762844106,773037224,1762844106.7730372,imu1_frame,0.047606,-0.107581,0.023289,1.638,-0.939,-10.621,8.350000000000001e-05,-0.000114,0.0006217000000000001,
1762844106800544582,1762844106.8005447,1762844106,799799415,1762844106.7997994,imu1_frame,0.456698,-0.267209,0.064926,1.224,-2.54,-9.604,8.57e-05,-0.0001176,0.0006232,
1762844106823128484,1762844106.8231287,1762844106,822485318,1762844106.8224852,imu1_frame,1.013823,-0.651537,-0.091072,0.796,-2.938,-7.676,8.91e-05,-0.0001118,0.0006367,
1762844106847877968,1762844106.847878,1762844106,847278177,1762844106.847278,imu1_frame,0.970237,-1.337879,0.298041,1.513,2.282,-8.288,0.0001049,-9.900000000000001e-05,0.0006293,
1762844106872694910,1762844106.872695,1762844106,872064494,1762844106.8720646,imu1_frame,-0.188161,-0.478304,0.612081,0.954,-3.309,-13.902,0.0001161,-9.329999999999999e-05,0.0006352,
1762844106897051561,1762844106.8970518,1762844106,896482437,1762844106.8964825,imu1_frame,-0.28115,0.514506,-0.132893,0.703,-4.0,-11.494,0.0001129,-8.86e-05,0.0006296,
1762844106921695879,1762844106.9216962,1762844106,921412879,1762844106.921413,imu1_frame,-0.077141,0.429409,-0.363505,1.185,-1.665,-9.457,0.0001106,-8.97e-05,0.0006255,
1762844106946377696,1762844106.9463778,1762844106,946210030,1762844106.9462101,imu1_frame,-0.214263,0.435248,-0.062652,1.927,0.499,-9.442,0.000106,-0.0001026,0.0006321,
1762844106971390180,1762844106.9713902,1762844106,971232722,1762844106.9712327,imu1_frame,-0.433642,0.47482,0.13632,1.789,-0.36,-8.322,9.71e-05,-0.0001001,0.0006383,
1762844106996524539,1762844106.9965246,1762844106,996360122,1762844106.99636,imu1_frame,-0.30504,0.148311,0.223887,1.24,-0.425,-8.35,9.58e-05,-0.0001119,0.000633,
1762844107022132314,1762844107.0221324,1762844107,21767648,1762844107.0217676,imu1_frame,-0.302438,0.045723,0.177941,0.805,-1.924,-10.11,9.020000000000001e-05,-0.0001141,0.0006408000000000001,
1762844107048285464,1762844107.0482855,1762844107,47736506,1762844107.0477364,imu1_frame,-0.511306,0.222107,3.8e-05,1.173,-1.855,-10.441,8.92e-05,-0.000107,0.0006313,
1762844107074581072,1762844107.0745811,1762844107,73807322,1762844107.0738072,imu1_frame,-0.485649,0.211385,0.056422,1.522,-1.435,-10.084,8.47e-05,-0.000114,0.0006218,
1762844107098706806,1762844107.0987067,1762844107,97904849,1762844107.097905,imu1_frame,-0.277612,0.279729,0.116787,1.609,-0.902,-9.835,8.340000000000001e-05,-0.0001235,0.0006218,
1762844107123897415,1762844107.1238976,1762844107,123222416,1762844107.1232224,imu1_frame,-0.120759,0.241561,0.251095,1.523,-0.899,-9.185,7.98e-05,-0.00013519999999999998,0.0006298,
1762844107148570233,1762844107.1485703,1762844107,147674358,1762844107.1476743,imu1_frame,-0.022557,0.062674,0.341174,1.265,-1.434,-8.968,7.539999999999999e-05,-0.0001316,0.0006242,
1762844107173834008,1762844107.173834,1762844107,173159133,1762844107.1731591,imu1_frame,-0.153882,-0.03951,0.370513,1.336,-1.38,-9.478,7.42e-05,-0.0001375,0.0006282,
1762844107199059367,1762844107.1990595,1762844107,198525075,1762844107.1985252,imu1_frame,-0.028959,-0.12868,0.360739,1.232,-2.0,-9.487,7.33e-05,-0.00012570000000000002,0.0006293,
1762844107224248642,1762844107.2242486,1762844107,223569601,1762844107.2235696,imu1_frame,0.105285,-0.086757,0.168518,1.245,-2.082,-10.307,7.78e-05,-0.00012220000000000002,0.0006189,
1762844107248452835,1762844107.248453,1762844107,247883585,1762844107.2478836,imu1_frame,-0.002584,0.107866,0.154306,1.621,-1.278,-10.189,7.539999999999999e-05,-0.0001328,0.0006229,
1762844107274122485,1762844107.2741227,1762844107,273344277,1762844107.2733443,imu1_frame,-0.144101,0.173321,0.190368,1.645,-2.008,-9.789,7.09e-05,-0.0001386,0.000632,
1762844107299462052,1762844107.2994623,1762844107,298666469,1762844107.2986665,imu1_frame,0.167895,0.082338,0.013195,1.028,-2.818,-9.554,7.2e-05,-0.0001363,0.0006267,
1762844107323321912,1762844107.323322,1762844107,322581870,1762844107.3225818,imu1_frame,0.60171,-0.104316,-0.255551,0.287,-3.352,-9.179,6.99e-05,-0.00013270000000000003,0.0006319,
1762844107347811313,1762844107.3478115,1762844107,347176688,1762844107.3471768,imu1_frame,0.313696,-0.160513,-0.19167,1.19,-1.264,-10.07,7.35e-05,-0.0001186,0.0006253,
1762844107374648129,1762844107.374648,1762844107,373856254,1762844107.3738563,imu1_frame,-0.067293,-0.060425,0.010851,1.916,-1.453,-10.054,7.68e-05,-0.00011740000000000001,0.0006281,
1762844107399290446,1762844107.3992906,1762844107,398686905,1762844107.398687,imu1_frame,0.097006,0.013895,-0.129202,2.185,-0.881,-9.937,7.560000000000001e-05,-0.0001245,0.0006254,
1762844107424316388,1762844107.4243166,1762844107,423481597,1762844107.4234817,imu1_frame,0.111491,-0.033323,-0.073555,1.481,-1.224,-9.028,7.46e-05,-0.00011980000000000001,0.0006360000000000001,
1762844107448682789,1762844107.4486828,1762844107,447542290,1762844107.4475422,imu1_frame,-0.192995,-0.013352,0.008519,1.534,0.506,-9.509,7.78e-05,-0.0001246,0.0006256,
1762844107473438607,1762844107.4734387,1762844107,472820940,1762844107.472821,imu1_frame,-0.324077,0.046157,0.259864,1.317,-1.808,-10.079,7.66e-05,-0.0001304,0.0006349,
1762844107497613799,1762844107.497614,1762844107,496985425,1762844107.4969854,imu1_frame,0.031196,-0.043244,-0.020441,1.086,-2.376,-9.575,7.570000000000001e-05,-0.00011980000000000001,0.0006334,
1762844107523098033,1762844107.5230982,1762844107,522557450,1762844107.5225575,imu1_frame,0.037496,-0.089593,0.090822,1.603,-0.001,-9.634,7.340000000000001e-05,-0.00011970000000000001,0.0006253,
1762844107548930558,1762844107.5489306,1762844107,547909309,1762844107.5479093,imu1_frame,-0.212237,-0.01427,0.212328,1.4,-1.141,-9.488,7.77e-05,-0.0001281,0.0006176,
1762844107572208835,1762844107.5722091,1762844107,571994835,1762844107.5719948,imu1_frame,-0.164061,0.112882,0.077715,1.187,-2.063,-9.898,7.439999999999999e-05,-0.00012920000000000002,0.0006294,
1762844107596703986,1762844107.596704,1762844107,596555111,1762844107.596555,imu1_frame,-0.098133,0.125894,0.023986,1.069,-1.447,-9.868,7.539999999999999e-05,-0.000134,0.0006295,
1762844107622905844,1762844107.622906,1762844107,622529136,1762844107.622529,imu1_frame,-0.108995,0.124268,0.123565,1.223,-1.494,-9.658,6.87e-05,-0.0001338,0.0006319,
1762844107647417911,1762844107.647418,1762844107,646846828,1762844107.6468468,imu1_frame,-0.080288,-0.056017,0.05563,1.426,-1.452,-8.853,7.11e-05,-0.000128,0.0006293,
1762844107673813103,1762844107.673813,1762844107,673187020,1762844107.673187,imu1_frame,-0.025003,-0.134882,-0.042155,1.445,-1.531,-9.823,7.55e-05,-0.0001281,0.0006215000000000001,
1762844107699646086,1762844107.6996462,1762844107,698747628,1762844107.6987476,imu1_frame,-0.088879,-0.027826,0.02107,1.502,-0.87,-9.956,7.539999999999999e-05,-0.0001351,0.0006162,
1762844107723164529,1762844107.7231646,1762844107,722498821,1762844107.722499,imu1_frame,-0.017466,0.010594,0.044943,1.612,-0.743,-9.908,7.31e-05,-0.0001398,0.0006348,
1762844107749064846,1762844107.7490652,1762844107,748228430,1762844107.7482283,imu1_frame,-0.007953,0.108448,0.07018,1.63,-0.776,-9.523,7.630000000000001e-05,-0.00014230000000000002,0.0006284,
1762844107774293413,1762844107.7742937,1762844107,773522163,1762844107.7735221,imu1_frame,-0.003208,0.008109,0.078118,1.262,-1.617,-9.332,7.3e-05,-0.00014099999999999998,0.0006308,
1762844107799071064,1762844107.799071,1762844107,798377606,1762844107.7983775,imu1_frame,0.076141,-0.045883,-0.047551,1.2,-1.693,-9.716,6.99e-05,-0.0001303,0.0006306,
1762844107823880798,1762844107.823881,1762844107,823156756,1762844107.8231568,imu1_frame,0.093401,-0.021308,-0.066924,1.573,-1.357,-10.165,7.560000000000001e-05,-0.0001245,0.0006241,
1762844107849333656,1762844107.8493338,1762844107,848229657,1762844107.8482296,imu1_frame,0.051862,0.002948,-0.08502,1.564,-0.882,-9.539,7.43e-05,-0.0001304,0.0006268000000000001,
1762844107883346218,1762844107.8833463,1762844107,881616552,1762844107.8816166,imu1_frame,0.189382,-0.13729,-0.063873,1.27,-1.441,-9.324,7.53e-05,-0.0001375,0.0006282999999999999,
1762844107898266583,1762844107.8982668,1762844107,897719917,1762844107.8977199,imu1_frame,0.260703,-0.18029,0.003876,1.376,-1.044,-10.05,7.65e-05,-0.0001316,0.0006296,
1762844107924474233,1762844107.9244742,1762844107,923641400,1762844107.9236414,imu1_frame,0.143759,-0.052825,-0.010275,1.36,-1.67,-9.522,7.66e-05,-0.0001304,0.0006362,
1762844107948755051,1762844107.948755,1762844107,947896968,1762844107.947897,imu1_frame,0.181625,-0.143763,-0.063138,1.384,-1.573,-8.958,7.910000000000001e-05,-0.00011630000000000001,0.0006362,
1762844107973128535,1762844107.9731286,1762844107,972479910,1762844107.9724798,imu1_frame,0.199248,-0.277523,0.034865,1.305,-0.926,-9.583,8.46e-05,-0.00011640000000000001,0.0006205000000000001,
1762844107998109602,1762844107.9981098,1762844107,997479061,1762844107.997479,imu1_frame,-0.027081,-0.029814,0.129914,1.118,-1.688,-10.901,8.57e-05,-0.0001176,0.0006245000000000001,
1762844108024433127,1762844108.0244334,1762844108,23733794,1762844108.0237339,imu1_frame,-0.045475,0.049607,-0.027173,0.936,-2.39,-10.251,8.23e-05,-0.0001211,0.0006391,
1762844108049214611,1762844108.0492148,1762844108,48525445,1762844108.0485253,imu1_frame,-0.011863,0.037449,-0.071003,1.07,-1.832,-9.92,8.340000000000001e-05,-0.0001211,0.0006338,
1762844108073396554,1762844108.0733967,1762844108,72746179,1762844108.0727463,imu1_frame,-0.017431,0.046168,-0.045993,1.177,-1.485,-9.381,8.12e-05,-0.0001211,0.0006404,
1762844108097712288,1762844108.0977125,1762844108,97191205,1762844108.097191,imu1_frame,-0.002766,-0.056903,0.022887,1.36,-1.601,-9.423,8.36e-05,-0.00011169999999999999,0.0006377,
1762844108122271522,1762844108.1222715,1762844108,122077064,1762844108.122077,imu1_frame,0.025451,-0.060139,-0.065873,1.092,-2.012,-9.865,8.350000000000001e-05,-0.000114,0.0006244,
1762844108146365382,1762844108.1463656,1762844108,146230590,1762844108.1462307,imu1_frame,-0.053116,0.06983,-0.130664,0.751,-2.388,-10.619,8.58e-05,-0.00011169999999999999,0.0006272,
1762844108172144907,1762844108.172145,1762844108,171934324,1762844108.1719344,imu1_frame,-0.274318,0.426378,-0.204284,1.341,-1.702,-10.951,8.12e-05,-0.00012230000000000002,0.000639,
1762844108197200516,1762844108.1972008,1762844108,196927349,1762844108.1969273,imu1_frame,-0.208882,0.573917,-0.154036,2.25,-0.242,-10.226,7.99e-05,-0.0001293,0.0006311,
1762844108222846666,1762844108.2228467,1762844108,222468791,1762844108.2224689,imu1_frame,-0.363776,0.471539,0.118049,1.711,-0.424,-7.794,6.55e-05,-0.0001314,0.000637,
1762844108247458442,1762844108.2474587,1762844108,246959275,1762844108.2469592,imu1_frame,-0.105712,0.049076,0.248489,1.128,-1.578,-8.247,6.33e-05,-0.00012900000000000002,0.0006302,
1762844108273933716,1762844108.273934,1762844108,273177300,1762844108.2731774,imu1_frame,0.079088,-0.184493,0.069062,1.075,-1.955,-9.359,6.769999999999999e-05,-0.00012790000000000002,0.0006291000000000001,
1762844108299586033,1762844108.299586,1762844108,298757659,1762844108.2987576,imu1_frame,-0.155957,-0.033252,-0.041905,1.477,-1.339,-10.692,7.11e-05,-0.0001268,0.0006279,
1762844108323466018,1762844108.323466,1762844108,322810685,1762844108.3228106,imu1_frame,-0.462079,0.11876,-0.025648,1.739,-0.986,-10.003,6.54e-05,-0.0001361,0.0006344,
1762844108347546419,1762844108.3475466,1762844108,347145711,1762844108.3471458,imu1_frame,-0.191002,0.020492,-0.041938,1.629,-1.223,-9.669,6.97e-05,-0.00014099999999999998,0.0006293,
1762844108374528235,1762844108.3745284,1762844108,373683527,1762844108.3736835,imu1_frame,-0.059189,-0.055737,-0.090168,1.429,-1.048,-9.497,6.510000000000001e-05,-0.000148,0.0006372,
1762844108398920094,1762844108.3989203,1762844108,398330469,1762844108.3983305,imu1_frame,-0.047859,-0.059658,-0.063246,1.481,-0.753,-9.926,6.419999999999999e-05,-0.0001373,0.000629,
1762844108423864286,1762844108.4238644,1762844108,423311828,1762844108.4233117,imu1_frame,-0.072047,-0.035068,-0.010909,1.605,-1.316,-9.815,6.87e-05,-0.0001362,0.0006212,
1762844108448685520,1762844108.4486856,1762844108,448147687,1762844108.4481478,imu1_frame,-0.022766,-0.003901,-0.021557,1.657,-0.871,-10.071,7.09e-05,-0.0001351,0.0006173,
1762844108473882004,1762844108.4738822,1762844108,473359546,1762844108.4733596,imu1_frame,-0.019794,0.029177,-0.00203,1.527,-0.771,-10.082,6.74e-05,-0.00014330000000000001,0.0006359,
1762844108499198613,1762844108.499199,1762844108,498227780,1762844108.4982278,imu1_frame,-0.072534,0.068025,0.01346,1.552,-1.143,-9.615,6.86e-05,-0.0001398,0.0006253,
1762844108525158846,1762844108.5251591,1762844108,523131556,1762844108.5231316,imu1_frame,-0.040345,0.007063,-0.012846,1.695,-1.03,-9.32,6.840000000000001e-05,-0.0001528,0.0006361,
1762844108549255539,1762844108.5492556,1762844108,548468706,1762844108.5484686,imu1_frame,0.008197,-0.03531,0.055156,1.635,-1.092,-10.078,6.64e-05,-0.00013969999999999998,0.0006305,
1762844108572968149,1762844108.5729682,1762844108,572406816,1762844108.5724068,imu1_frame,0.017877,0.027598,0.015919,1.498,-1.089,-9.86,6.75e-05,-0.0001421,0.0006239,
1762844108599314465,1762844108.5993145,1762844108,598345382,1762844108.5983453,imu1_frame,0.038006,0.029932,-0.036934,1.475,-1.546,-9.937,6.64e-05,-0.00013969999999999998,0.0006238,
1762844108631239069,1762844108.6312392,1762844108,630233653,1762844108.6302338,imu1_frame,0.004837,0.012944,-0.026514,1.707,-0.483,-9.547,6.850000000000001e-05,-0.0001445,0.0006347000000000001,
1762844108649500016,1762844108.6495001,1762844108,648704391,1762844108.6487043,imu1_frame,0.004542,0.006131,0.08492,1.704,-0.815,-9.515,6.850000000000001e-05,-0.000148,0.0006213,
1762844108673665000,1762844108.673665,1762844108,672857584,1762844108.6728575,imu1_frame,-0.056737,0.008727,0.131456,1.596,-0.855,-9.809,6.73e-05,-0.00015160000000000003,0.0006332999999999999,
1762844108697858401,1762844108.6978583,1762844108,697143527,1762844108.6971436,imu1_frame,-0.160278,0.180728,0.015119,1.416,-1.92,-10.654,6.41e-05,-0.00014319999999999998,0.0006317,
1762844108722307386,1762844108.7223074,1762844108,722062928,1762844108.7220628,imu1_frame,-0.176868,0.37132,-0.091886,1.566,-0.989,-10.245,6.08e-05,-0.0001443,0.0006236000000000001,
1762844108747053578,1762844108.7470536,1762844108,746900328,1762844108.7469003,imu1_frame,-0.046245,0.26953,0.070547,1.803,-0.355,-9.452,5.97e-05,-0.0001431,0.0006195,
1762844108771724229,1762844108.7717245,1762844108,771571312,1762844108.7715714,imu1_frame,0.062305,0.035409,0.128477,1.797,-1.018,-8.882,5.5100000000000004e-05,-0.0001513,0.0006353999999999999,
1762844108797752420,1762844108.7977524,1762844108,797380504,1762844108.7973804,imu1_frame,0.092373,-0.088067,0.018565,1.651,-1.297,-9.164,5.73e-05,-0.0001502,0.0006274999999999999,
1762844108822480946,1762844108.822481,1762844108,821997530,1762844108.8219976,imu1_frame,0.151999,-0.121555,-0.027125,1.646,-0.775,-10.023,5.6200000000000004e-05,-0.0001525,0.0006314,
1762844108848139930,1762844108.8481402,1762844108,847586972,1762844108.8475869,imu1_frame,0.05342,0.00358,0.01599,1.619,-1.203,-10.011,5.6500000000000005e-05,-0.0001348,0.0006339000000000001,
1762844108879187201,1762844108.8791873,1762844108,878221910,1762844108.878222,imu1_frame,0.081051,-0.060288,-0.017568,1.585,-1.483,-9.383,5.9800000000000003e-05,-0.0001372,0.0006221,
1762844108898539314,1762844108.8985393,1762844108,897748939,1762844108.897749,imu1_frame,0.145749,-0.130123,-0.06978,1.608,-1.203,-9.446,6.1e-05,-0.00013370000000000002,0.0006221,
1762844108923509423,1762844108.9235096,1762844108,922930465,1762844108.9229305,imu1_frame,0.147595,-0.138852,-0.061926,1.713,-0.755,-9.953,6.2e-05,-0.0001373,0.0006382,
1762844108949250240,1762844108.9492505,1762844108,948548115,1762844108.948548,imu1_frame,0.159254,-0.13919,0.106391,1.862,-0.577,-10.116,6.09e-05,-0.0001361,0.0006248,
1762844108976363722,1762844108.976364,1762844108,973844640,1762844108.9738445,imu1_frame,0.124817,-0.077386,0.04114,1.645,-1.323,-9.852,6.19e-05,-0.0001408,0.0006409,
1762844108999131041,1762844108.9991312,1762844108,998247166,1762844108.9982471,imu1_frame,0.065631,0.004841,-0.021588,1.733,-1.067,-9.827,6.1e-05,-0.00013020000000000002,0.0006381000000000001,
1762844109024313108,1762844109.0243132,1762844109,23571983,1762844109.023572,imu1_frame,0.060517,0.007715,0.130511,1.818,-0.379,-9.818,6.440000000000001e-05,-0.00012790000000000002,0.0006276000000000001,
1762844109049763092,1762844109.0497632,1762844109,49060509,1762844109.0490606,imu1_frame,0.035706,0.033327,0.166267,1.797,-1.132,-9.102,6.55e-05,-0.0001291,0.0006263,
1762844109076461366,1762844109.0764613,1762844109,74183201,1762844109.0741832,imu1_frame,0.205203,-0.225202,0.222321,1.659,-1.516,-8.403,6.2e-05,-0.0001361,0.0006409,
1762844109098992310,1762844109.0989926,1762844109,98313602,1762844109.0983136,imu1_frame,0.258395,-0.344662,0.149843,1.664,-1.189,-9.424,6.890000000000001e-05,-0.0001268,0.0006291000000000001,
1762844109124413085,1762844109.1244133,1762844109,123598877,1762844109.1235988,imu1_frame,0.163629,-0.290023,0.32172,1.76,-0.437,-10.105,7.099999999999999e-05,-0.0001303,0.0006426,
1762844109149073028,1762844109.1490734,1762844109,148224528,1762844109.1482246,imu1_frame,0.072069,-0.166704,0.376581,1.643,-1.471,-10.41,7.240000000000001e-05,-0.0001162,0.0006399,
1762844109173904220,1762844109.1739042,1762844109,173231970,1762844109.173232,imu1_frame,0.140512,-0.181643,0.214303,1.625,-1.836,-9.967,7.68e-05,-0.0001186,0.0006308,
1762844109199082370,1762844109.1990826,1762844109,198247496,1762844109.1982474,imu1_frame,0.191803,-0.205259,0.149751,1.674,-1.553,-10.597,7.81e-05,-0.000108,0.0006294,
1762844109223726313,1762844109.2237265,1762844109,223052063,1762844109.223052,imu1_frame,0.04066,0.1346,0.014696,1.64,-1.497,-10.675,7.79e-05,-0.00011980000000000001,0.0006374999999999999,
1762844109249544546,1762844109.2495446,1762844109,248475755,1762844109.2484758,imu1_frame,-0.063342,0.326493,-0.129531,1.889,-1.001,-8.638,7.35e-05,-0.0001186,0.0006359,
1762844109274328364,1762844109.2743285,1762844109,273690906,1762844109.273691,imu1_frame,-0.068731,0.174418,-0.049997,2.502,-0.033,-7.651,7.12e-05,-0.0001209,0.0006399,
1762844109298795014,1762844109.2987952,1762844109,298178223,1762844109.2981782,imu1_frame,0.106603,-0.21026,0.121878,2.789,-0.065,-8.257,7.14e-05,-0.00011260000000000001,0.0006358000000000001,
1762844109321651958,1762844109.3216522,1762844109,321458292,1762844109.3214583,imu1_frame,0.182227,-0.282046,0.209529,2.417,-2.079,-10.819,7.47e-05,-0.0001103,0.0006319,
1762844109347133067,1762844109.3471334,1762844109,346917567,1762844109.3469176,imu1_frame,0.129825,0.021364,-0.120627,1.92,-3.542,-12.685,7.69e-05,-0.00011509999999999999,0.0006281,
1762844109371657301,1762844109.3716574,1762844109,371525551,1762844109.3715255,imu1_frame,-0.077641,0.427527,-0.236149,2.337,-1.914,-11.219,7.35e-05,-0.00011740000000000001,0.0006466,
1762844109397579659,1762844109.39758,1762844109,397304368,1762844109.3973043,imu1_frame,-0.213624,0.47119,-0.173755,2.477,-2.127,-8.949,6.900000000000001e-05,-0.000122,0.0006291000000000001,
1762844109423773559,1762844109.4237735,1762844109,423200268,1762844109.4232004,imu1_frame,0.101484,0.142131,-0.11909,2.285,-2.226,-8.429,6.460000000000001e-05,-0.00012080000000000001,0.0006435,
1762844109448198543,1762844109.4481988,1762844109,447682502,1762844109.4476826,imu1_frame,0.261469,0.006233,-0.199642,1.938,-2.611,-9.527,6.37e-05,-0.0001101,0.000634,
1762844109473291652,1762844109.4732919,1762844109,472573778,1762844109.4725738,imu1_frame,0.062955,0.155895,-0.062309,2.073,-0.879,-9.668,6.59e-05,-0.0001066,0.0006287,
1762844109498496261,1762844109.4984963,1762844109,497677553,1762844109.4976776,imu1_frame,-0.187668,0.112163,0.117444,1.848,-2.02,-9.068,6.34e-05,-0.0001207,0.0006314,
1762844109523880536,1762844109.5238805,1762844109,522901870,1762844109.5229018,imu1_frame,0.034843,-0.096725,0.096008,1.933,-2.496,-9.875,6.26e-05,-0.0001054,0.0006432,
1762844109549121270,1762844109.5491214,1762844109,547937771,1762844109.5479379,imu1_frame,0.08522,-0.066513,-0.009828,1.924,-2.568,-10.674,6.47e-05,-0.0001149,0.0006368000000000001,
1762844109574378587,1762844109.5743785,1762844109,573436004,1762844109.573436,imu1_frame,-0.103844,0.130758,-0.127355,2.126,-1.847,-9.885,6.13e-05,-0.0001172,0.0006446,
1762844109598798946,1762844109.598799,1762844109,597803405,1762844109.5978034,imu1_frame,-0.278106,0.30058,-0.093277,2.363,-2.076,-9.559,5.800000000000001e-05,-0.00011350000000000001,0.0006443999999999999,
1762844109630128176,1762844109.6301281,1762844109,628629094,1762844109.6286292,imu1_frame,-0.204343,0.318106,-0.164084,2.228,-2.57,-8.839,5.4600000000000006e-05,-0.00011700000000000001,0.0006296,
1762844109647574040,1762844109.6475742,1762844109,646942499,1762844109.6469426,imu1_frame,0.019644,0.180317,-0.247024,2.164,-1.989,-8.272,5.23e-05,-0.0001217,0.0006282,
1762844109673708481,1762844109.6737087,1762844109,672971690,1762844109.6729717,imu1_frame,0.086677,0.044381,-0.086291,2.467,-1.028,-8.676,5.23e-05,-0.0001217,0.0006469000000000001,
1762844109698950632,1762844109.6989508,1762844109,698198132,1762844109.698198,imu1_frame,-0.002775,0.05323,-0.066941,2.065,-2.543,-9.189,5.35e-05,-0.0001206,0.0006323,
1762844109723429616,1762844109.7234297,1762844109,722692950,1762844109.722693,imu1_frame,-0.079797,0.099914,-0.197799,2.191,-2.616,-9.82,5.1200000000000004e-05,-0.0001252,0.0006374999999999999,
1762844109747920725,1762844109.7479208,1762844109,747430642,1762844109.7474306,imu1_frame,-0.024742,0.141731,-0.309025,2.308,-2.174,-10.096,4.91e-05,-0.0001193,0.0006360000000000001,
1762844109773803042,1762844109.7738032,1762844109,773062834,1762844109.773063,imu1_frame,0.05085,0.155109,-0.17826,2.411,-1.93,-10.283,5.2400000000000007e-05,-0.0001158,0.0006281,
1762844109798942026,1762844109.798942,1762844109,798087110,1762844109.7980871,imu1_frame,0.075564,0.176298,-0.254226,2.289,-2.549,-9.903,4.9000000000000005e-05,-0.0001228,0.0006334,
1762844109823235385,1762844109.8232355,1762844109,822638469,1762844109.8226385,imu1_frame,0.071208,0.159234,-0.316398,2.207,-2.372,-9.978,4.57e-05,-0.0001216,0.0006412,
1762844109848657785,1762844109.8486578,1762844109,847973202,1762844109.847973,imu1_frame,0.10309,0.01475,-0.253667,2.173,-0.943,-9.583,4.68e-05,-0.0001204,0.0006332,
1762844109888157052,1762844109.8881571,1762844109,887763260,1762844109.8877633,imu1_frame,0.060431,-0.124976,-0.066776,2.091,-0.929,-9.953,4.68e-05,-0.0001228,0.0006346,
1762844109896973504,1762844109.8969736,1762844109,896479255,1762844109.8964794,imu1_frame,0.099681,-0.136611,-0.146014,1.779,-1.134,-10.433,5.0299999999999996e-05,-0.000111,0.0006373,
1762844109921457947,1762844109.921458,1762844109,921265572,1762844109.9212656,imu1_frame,0.104658,-0.107604,-0.101053,1.55,-0.18,-10.586,5.59e-05,-0.0001111,0.0006269,
1762844109946309639,1762844109.9463098,1762844109,946166764,1762844109.9461668,imu1_frame,0.249763,-0.264998,0.065713,1.299,-1.278,-9.706,5.7e-05,-0.0001123,0.000631,
1762844109971900289,1762844109.9719005,1762844109,971547331,1762844109.9715474,imu1_frame,0.564588,-0.437188,-0.014515,1.291,-1.965,-9.639,5.8200000000000005e-05,-0.00010530000000000001,0.000643,
1762844109997447940,1762844109.997448,1762844109,996936190,1762844109.996936,imu1_frame,0.4979,-0.178396,-0.12729,1.55,-1.425,-10.424,6.83e-05,-9.95e-05,0.0006368000000000001,
1762844110023234423,1762844110.0232344,1762844110,22633132,1762844110.022633,imu1_frame,0.013167,0.332616,-0.178961,1.607,-1.332,-10.204,6.49e-05,-0.00010190000000000001,0.0006433,
1762844110048173407,1762844110.0481734,1762844110,47562157,1762844110.0475621,imu1_frame,-0.073937,0.339764,-0.082664,1.494,-1.144,-8.146,5.74e-05,-8.989999999999999e-05,0.0006481,
1762844110074201348,1762844110.0742013,1762844110,73322432,1762844110.0733225,imu1_frame,0.308648,-0.159727,-0.129874,1.348,-2.276,-7.943,6.2e-05,-8.17e-05,0.0006349,
1762844110098540458,1762844110.0985405,1762844110,97828625,1762844110.0978286,imu1_frame,0.418309,-0.280577,-0.268305,1.663,-1.901,-10.076,6.53e-05,-8.290000000000001e-05,0.0006311,
1762844110123711233,1762844110.1237113,1762844110,122871317,1762844110.1228714,imu1_frame,-0.003858,0.176568,-0.341132,1.789,-1.678,-10.629,6.4e-05,-9.120000000000001e-05,0.0006471000000000001,
1762844110148625509,1762844110.1486256,1762844110,147796676,1762844110.1477966,imu1_frame,-0.295665,0.452264,-0.561,2.112,-1.633,-8.784,6.17e-05,-9.59e-05,0.0006404,
1762844110173403576,1762844110.1734037,1762844110,172777868,1762844110.172778,imu1_frame,-0.023894,0.138133,-0.502528,2.497,-0.315,-7.324,5.72e-05,-9.82e-05,0.0006414999999999999,
1762844110201705683,1762844110.201706,1762844110,200315726,1762844110.2003157,imu1_frame,0.193236,-0.159062,-0.33301,2.808,-0.187,-8.229,5.86e-05,-8.52e-05,0.0006468000000000001,
1762844110221762337,1762844110.2217624,1762844110,221400379,1762844110.2214003,imu1_frame,0.137014,-0.003774,-0.192738,2.911,-0.587,-9.33,6.09e-05,-7.93e-05,0.0006308,
1762844110247069362,1762844110.2470696,1762844110,246702904,1762844110.246703,imu1_frame,0.081594,0.14095,-0.297648,2.728,-0.892,-8.911,5.97e-05,-8.280000000000001e-05,0.0006374999999999999,
1762844110271387055,1762844110.2713873,1762844110,271217180,1762844110.271217,imu1_frame,0.267497,-0.009786,-0.132554,2.702,-0.713,-9.176,5.8500000000000006e-05,-8.75e-05,0.0006468000000000001,
1762844110296341622,1762844110.2963417,1762844110,296203455,1762844110.2962034,imu1_frame,0.188792,-0.025986,-0.186665,2.735,-1.217,-9.583,6.31e-05,-7.94e-05,0.0006416,
1762844110321324814,1762844110.3213248,1762844110,321193773,1762844110.3211937,imu1_frame,0.112044,0.028521,-0.227874,2.72,-1.167,-10.363,6.08e-05,-8.52e-05,0.0006509,
1762844110346338090,1762844110.3463383,1762844110,346186798,1762844110.3461869,imu1_frame,0.192507,0.090024,-0.277593,2.603,-1.45,-10.175,6.22e-05,-6.99e-05,0.0006428,
1762844110371361574,1762844110.3713617,1762844110,371222116,1762844110.371222,imu1_frame,0.249895,0.052208,-0.290631,2.45,-1.189,-9.452,6.110000000000001e-05,-6.87e-05,0.0006374,
1762844110397128432,1762844110.3971286,1762844110,396693724,1762844110.3966937,imu1_frame,0.092787,0.044625,-0.375246,2.055,-2.525,-10.268,6.34e-05,-6.52e-05,0.0006414999999999999,
1762844110422564374,1762844110.4225645,1762844110,421947125,1762844110.4219472,imu1_frame,0.00914,0.18482,-0.552091,2.286,-1.328,-10.504,5.9900000000000006e-05,-7.570000000000001e-05,0.0006533999999999999,
1762844110448146858,1762844110.448147,1762844110,447465691,1762844110.4474657,imu1_frame,0.03111,0.226673,-0.47819,2.65,-1.608,-10.11,6.1e-05,-7.340000000000001e-05,0.0006414,
1762844110473361175,1762844110.4733613,1762844110,472660717,1762844110.4726608,imu1_frame,0.163372,0.035993,-0.304237,2.824,-1.816,-8.698,5.9e-05,-6.63e-05,0.0006506,
1762844110498371242,1762844110.4983714,1762844110,497227368,1762844110.4972274,imu1_frame,0.120805,-0.139844,-0.106317,2.483,-2.232,-9.448,5.57e-05,-6.03e-05,0.0006463,
1762844110521485810,1762844110.521486,1762844110,521289852,1762844110.5212898,imu1_frame,-0.032983,-0.155079,-0.054279,1.364,-3.782,-10.744,6.02e-05,-6.16e-05,0.0006426,
1762844110546289461,1762844110.5462894,1762844110,546165753,1762844110.5461657,imu1_frame,-0.028208,-0.295058,-0.14066,0.624,-4.343,-11.206,6.78e-05,-6.759999999999999e-05,0.0006377,
1762844110571808236,1762844110.5718083,1762844110,571505278,1762844110.5715053,imu1_frame,0.083076,-0.295724,-0.47364,0.444,-4.866,-10.805,6.79e-05,-6.05e-05,0.000651,
1762844110597497303,1762844110.5974975,1762844110,597051428,1762844110.5970514,imu1_frame,-0.00231,-0.160307,-0.677356,1.514,-2.066,-9.592,7.340000000000001e-05,-6.769999999999999e-05,0.0006433,
1762844110622785787,1762844110.6227858,1762844110,622249912,1762844110.6222498,imu1_frame,-0.134654,-0.066699,-0.445816,2.597,0.185,-8.481,7.439999999999999e-05,-6.890000000000001e-05,0.0006541,
1762844110648960603,1762844110.6489606,1762844110,647978354,1762844110.6479783,imu1_frame,-0.279978,0.001502,-0.333853,2.651,-1.467,-8.062,7.8e-05,-5.83e-05,0.0006488,
1762844110673276504,1762844110.6732764,1762844110,672587880,1762844110.6725879,imu1_frame,-0.082046,0.102008,-0.489335,2.859,-1.139,-7.794,7.78e-05,-6.78e-05,0.0006356,
1762844110698341822,1762844110.698342,1762844110,697528197,1762844110.6975281,imu1_frame,0.044509,-0.00353,-0.030186,3.091,0.664,-7.654,7.560000000000001e-05,-6.66e-05,0.0006434,
1762844110722738347,1762844110.7227385,1762844110,722092056,1762844110.7220922,imu1_frame,0.144336,-0.270965,0.495702,2.292,-1.325,-7.832,7.78e-05,-6.900000000000001e-05,0.0006476,
1762844110747601040,1762844110.7476013,1762844110,747022873,1762844110.7470229,imu1_frame,0.11749,-0.361422,0.319541,1.47,-3.392,-9.592,8.21e-05,-7.5e-05,0.0006359,
1762844110773878065,1762844110.773878,1762844110,772943065,1762844110.772943,imu1_frame,0.055258,-0.131277,-0.150033,1.617,-3.033,-9.994,8.67e-05,-6.68e-05,0.000648,
1762844110799149507,1762844110.7991498,1762844110,798143424,1762844110.7981434,imu1_frame,0.149494,-0.096246,0.048202,2.51,-0.787,-9.651,8.680000000000001e-05,-5.8500000000000006e-05,0.0006519000000000001,
1762844110823226824,1762844110.823227,1762844110,822631033,1762844110.8226311,imu1_frame,0.231478,-0.128111,0.2615,2.62,-2.247,-8.752,9.130000000000001e-05,-5.74e-05,0.0006441,
1762844110848171017,1762844110.8481712,1762844110,847558684,1762844110.8475587,imu1_frame,0.138735,-0.189418,0.104363,2.703,-2.551,-8.479,9.35e-05,-5.86e-05,0.0006429000000000001,
1762844110873420667,1762844110.8734207,1762844110,872676793,1762844110.8726768,imu1_frame,-0.069216,-0.061573,-0.030442,2.377,-2.712,-9.413,9.010000000000001e-05,-6.09e-05,0.0006495,
1762844110898425318,1762844110.8984253,1762844110,897761860,1762844110.8977618,imu1_frame,-0.16851,0.15234,-0.165658,2.267,-3.2,-9.09,9.56e-05,-6.22e-05,0.0006364,
1762844110923751551,1762844110.9237516,1762844110,922937635,1762844110.9229376,imu1_frame,-0.032689,0.055055,-0.151801,2.461,-2.741,-8.525,9.1e-05,-7.159999999999999e-05,0.0006483,
1762844110948482202,1762844110.9484825,1762844110,947788244,1762844110.9477882,imu1_frame,-0.042573,-0.026545,-0.364767,2.483,-3.013,-9.473,9.010000000000001e-05,-5.9800000000000003e-05,0.0006441,
1762844110973782019,1762844110.973782,1762844110,972927936,1762844110.972928,imu1_frame,-0.137578,0.167479,-0.328989,2.76,-2.118,-8.784,9.24e-05,-5.9800000000000003e-05,0.0006416,
1762844110997805004,1762844110.997805,1762844110,997173379,1762844110.9971733,imu1_frame,-0.027074,-0.093629,-0.162566,3.141,-1.745,-7.836,9.25e-05,-5.5100000000000004e-05,0.0006402000000000001,
1762844111023721487,1762844111.0237217,1762844111,22891279,1762844111.0228913,imu1_frame,-0.033059,-0.163765,0.097928,3.372,-2.362,-10.153,9.45e-05,-6.57e-05,0.0006431,
1762844111048725221,1762844111.0487254,1762844111,47815846,1762844111.0478158,imu1_frame,-0.31064,0.069539,-0.14836,3.122,-2.725,-10.566,9.54e-05,-7.4e-05,0.0006432,
1762844111073740496,1762844111.0737407,1762844111,72856539,1762844111.0728564,imu1_frame,-0.36539,0.141685,-0.099801,3.399,-1.215,-10.098,9.2e-05,-7.75e-05,0.0006443999999999999,
1762844111098100314,1762844111.0981004,1762844111,97468189,1762844111.0974681,imu1_frame,-0.08324,-0.154895,0.090256,2.897,-2.502,-8.84,8.999999999999999e-05,-6.800000000000001e-05,0.0006455,
1762844111121795965,1762844111.121796,1762844111,121527549,1762844111.1215274,imu1_frame,0.097213,-0.170122,-0.165573,2.949,-2.643,-10.867,9.77e-05,-7.290000000000001e-05,0.0006393,
1762844111146307366,1762844111.1463075,1762844111,146179366,1762844111.1461794,imu1_frame,-0.259261,-0.06079,0.111614,2.586,-1.262,-11.445,9.99e-05,-7.41e-05,0.0006381000000000001,
1762844111171863058,1762844111.171863,1762844111,171549142,1762844111.171549,imu1_frame,-0.322879,-0.00659,0.241857,1.611,-2.895,-12.188,9.63e-05,-8.47e-05,0.0006514,
1762844111197049500,1762844111.1970496,1762844111,196713751,1762844111.1967137,imu1_frame,-0.013294,-0.173033,0.112732,0.94,-3.536,-12.866,0.0001008,-8.48e-05,0.0006435999999999999,
1762844111223440358,1762844111.2234404,1762844111,222580817,1762844111.222581,imu1_frame,-0.085586,0.098405,-0.214255,0.929,-3.234,-11.997,9.74e-05,-8.83e-05,0.0006502,
1762844111248351342,1762844111.2483513,1762844111,247571634,1762844111.2475717,imu1_frame,-0.211735,0.26685,-0.320018,1.893,-0.9,-9.465,9.420000000000001e-05,-8.11e-05,0.0006472,
1762844111273588993,1762844111.2735891,1762844111,272753827,1762844111.2727537,imu1_frame,-0.023707,0.103342,-0.063901,2.442,0.034,-7.69,9.65e-05,-7.76e-05,0.000642,
1762844111298651393,1762844111.2986515,1762844111,297891310,1762844111.2978914,imu1_frame,0.047205,0.07403,0.240278,2.54,-0.574,-8.413,9.410000000000001e-05,-8.23e-05,0.0006406,
1762844111322598294,1762844111.3225985,1762844111,321983753,1762844111.3219838,imu1_frame,-0.01457,0.133902,0.1767,1.704,-2.449,-9.16,8.97e-05,-8.340000000000001e-05,0.0006550000000000001,
1762844111348748569,1762844111.3487487,1762844111,347899112,1762844111.3478992,imu1_frame,-0.055038,0.185513,0.029762,1.287,-2.363,-9.429,9.070000000000001e-05,-8.7e-05,0.0006431,
1762844111373799262,1762844111.3737993,1762844111,373113179,1762844111.3731132,imu1_frame,0.051457,0.104534,-0.127658,1.205,-3.015,-8.708,8.400000000000001e-05,-9.279999999999999e-05,0.0006495,
1762844111398840245,1762844111.3988404,1762844111,397979871,1762844111.39798,imu1_frame,0.234483,-0.141119,-0.127758,1.609,-2.535,-8.454,8.54e-05,-7.39e-05,0.0006506999999999999,
1762844111423433563,1762844111.4234335,1762844111,422751105,1762844111.4227512,imu1_frame,0.144956,-0.040946,-0.412116,1.525,-3.824,-9.554,8.989999999999999e-05,-7.39e-05,0.0006416,
1762844111448283214,1762844111.4482832,1762844111,447663131,1762844111.447663,imu1_frame,-0.14118,0.275657,-0.792839,1.909,-2.505,-9.486,9.22e-05,-7.04e-05,0.0006403,
1762844111473761114,1762844111.473761,1762844111,472887739,1762844111.4728878,imu1_frame,-0.058789,0.16161,-0.637006,2.242,-1.655,-7.905,8.300000000000001e-05,-8.33e-05,0.0006506999999999999,
1762844111504430552,1762844111.5044308,1762844111,503654303,1762844111.5036542,imu1_frame,0.120294,-0.019819,-0.612062,2.81,-1.354,-8.69,8.86e-05,-8.46e-05,0.000647,
1762844111523259832,1762844111.52326,1762844111,522613749,1762844111.5226138,imu1_frame,-0.02406,0.086867,-0.591955,3.155,-0.444,-8.985,8.52e-05,-8.57e-05,0.0006548000000000001,
1762844111548870565,1762844111.5488708,1762844111,547909608,1762844111.5479095,imu1_frame,-0.060957,0.150044,-0.351787,3.066,0.373,-8.574,8.78e-05,-6.68e-05,0.0006521000000000001,
1762844111573781008,1762844111.573781,1762844111,572966842,1762844111.5729668,imu1_frame,0.176293,0.02261,-0.257687,2.62,-0.905,-8.578,8.76e-05,-7.51e-05,0.0006374999999999999,
1762844111598459284,1762844111.5984595,1762844111,597712659,1762844111.5977128,imu1_frame,0.08203,0.090892,-0.525673,2.307,-2.219,-9.508,8.43e-05,-7.5e-05,0.0006453,
1762844111623947559,1762844111.6239476,1762844111,622945268,1762844111.6229453,imu1_frame,-0.0839,0.243948,-0.515069,3.036,1.118,-9.805,8.2e-05,-7.85e-05,0.0006546,
1762844111648058127,1762844111.6480582,1762844111,647518627,1762844111.6475186,imu1_frame,0.067973,0.257795,0.063382,2.889,-2.02,-9.552,7.98e-05,-7.61e-05,0.0006491,
1762844111673603152,1762844111.6736033,1762844111,672729486,1762844111.6727295,imu1_frame,0.273596,0.197823,-0.436844,2.956,-2.323,-9.395,7.87e-05,-7.85e-05,0.0006544,
1762844111698045803,1762844111.6980457,1762844111,697196803,1762844111.6971967,imu1_frame,-0.088704,0.377682,-0.485356,3.363,-0.131,-9.552,7.13e-05,-6.06e-05,0.0006525,
1762844111721602454,1762844111.7216027,1762844111,721385163,1762844111.7213852,imu1_frame,-0.122308,0.253381,-0.05815,3.201,0.457,-8.748,6.890000000000001e-05,-6.759999999999999e-05,0.0006471000000000001,
1762844111746289563,1762844111.7462897,1762844111,746165688,1762844111.7461658,imu1_frame,0.35853,-0.205184,0.03758,2.69,-2.74,-10.253,7.000000000000001e-05,-6.65e-05,0.0006458000000000001,
1762844111771866630,1762844111.7718668,1762844111,771535380,1762844111.7715354,imu1_frame,0.378694,0.006505,-0.609775,2.769,-3.949,-11.056,7.340000000000001e-05,-6.65e-05,0.0006580000000000001,
1762844111797158697,1762844111.7971587,1762844111,796708281,1762844111.7967083,imu1_frame,0.032356,0.199493,-0.621953,3.705,-1.379,-10.228,7.46e-05,-6.18e-05,0.000646,
1762844111823224639,1762844111.8232248,1762844111,822413473,1762844111.8224134,imu1_frame,0.150485,-0.207865,-0.579545,3.407,-2.088,-9.564,7.12e-05,-6.65e-05,0.0006539,
1762844111847964664,1762844111.8479648,1762844111,847461165,1762844111.8474612,imu1_frame,0.178758,-0.366986,-0.573743,2.764,-2.6,-12.358,8.04e-05,-4.66e-05,0.0006541,
1762844111873982939,1762844111.8739831,1762844111,872934440,1762844111.8729343,imu1_frame,-0.143667,0.075691,-0.773871,2.199,-2.27,-11.789,8.26e-05,-5.02e-05,0.0006503,
1762844111898725173,1762844111.8987253,1762844111,897927132,1762844111.897927,imu1_frame,-0.265125,0.24913,-0.694685,2.46,-0.206,-9.291,8.38e-05,-4.5400000000000006e-05,0.0006435999999999999,
1762844111923354574,1762844111.9233546,1762844111,922633616,1762844111.9226336,imu1_frame,0.083012,0.037107,-0.612513,2.4,-0.567,-7.707,7.46e-05,-6.07e-05,0.0006593,
1762844111948585350,1762844111.9485855,1762844111,947683934,1762844111.947684,imu1_frame,0.218133,-0.104148,-0.560141,2.519,-0.573,-6.874,8.12e-05,-6.31e-05,0.0006504,
1762844111973556834,1762844111.9735568,1762844111,972781751,1762844111.9727817,imu1_frame,0.311361,-0.295667,-0.352492,2.557,-0.793,-7.646,8.46e-05,-5.97e-05,0.0006585,
1762844111998737651,1762844111.9987378,1762844111,997892943,1762844111.9978929,imu1_frame,0.180036,-0.28205,-0.217111,2.37,-1.519,-8.737,8.71e-05,-4.43e-05,0.0006558000000000001,
1762844112023670801,1762844112.023671,1762844112,22844969,1762844112.022845,imu1_frame,0.177109,-0.256439,-0.204169,1.843,-3.329,-9.538,9.27e-05,-4.44e-05,0.0006441,
1762844112047985744,1762844112.0479858,1762844112,47458036,1762844112.047458,imu1_frame,0.306945,-0.270055,-0.286767,1.664,-3.133,-9.37,9.6e-05,-4.21e-05,0.0006495,
1762844112073447936,1762844112.073448,1762844112,72647978,1762844112.072648,imu1_frame,0.222456,-0.227559,-0.376445,1.899,-2.666,-8.875,9.83e-05,-3.86e-05,0.0006575999999999999,
1762844112098349587,1762844112.0983496,1762844112,97659837,1762844112.0976598,imu1_frame,0.185481,-0.160962,-0.395675,2.339,-2.177,-8.16,0.0001038,-3.99e-05,0.0006539,
1762844112123957778,1762844112.1239579,1762844112,123174654,1762844112.1231747,imu1_frame,-0.023133,-0.093863,-0.548496,2.533,-2.629,-7.205,0.000105,-3.88e-05,0.0006606,
1762844112148094096,1762844112.1480944,1762844112,147497722,1762844112.1474977,imu1_frame,-0.197528,-0.144269,-0.56975,2.886,-1.213,-7.477,0.0001062,-3.05e-05,0.0006553,
1762844112173412413,1762844112.1734126,1762844112,172781289,1762844112.1727812,imu1_frame,-0.124865,-0.232547,-0.221305,2.802,-1.269,-7.678,0.0001118,-3.18e-05,0.0006435999999999999,
1762844112198590730,1762844112.1985908,1762844112,197795689,1762844112.1977956,imu1_frame,0.088344,-0.398085,-0.260802,2.264,-2.935,-8.574,0.000115,-3.54e-05,0.0006464,
1762844112223846131,1762844112.2238462,1762844112,222945215,1762844112.2229452,imu1_frame,0.32628,-0.440654,-0.454917,2.421,-2.113,-10.113,0.0001183,-3.66e-05,0.0006626,
1762844112248201615,1762844112.2482018,1762844112,247497866,1762844112.2474978,imu1_frame,0.177901,-0.20397,-0.305349,2.91,-0.825,-11.45,0.0001262,-3.09e-05,0.0006496,
1762844112273441849,1762844112.2734418,1762844112,272772224,1762844112.2727723,imu1_frame,0.194179,0.074302,-0.334179,2.92,-2.271,-10.837,0.0001228,-3.32e-05,0.0006602,
1762844112297934000,1762844112.2979343,1762844112,297240625,1762844112.2972407,imu1_frame,0.401156,0.017496,-0.330019,3.368,-1.501,-10.337,0.0001244,-9.6e-06,0.000656,
1762844112322111359,1762844112.3221114,1762844112,321888526,1762844112.3218884,imu1_frame,0.542262,-0.001701,-0.3449,3.601,-1.34,-10.788,0.0001268,1e-06,0.0006466,
1762844112347145676,1762844112.3471458,1762844112,346979260,1762844112.3469791,imu1_frame,0.29261,0.134745,-0.271856,3.896,-0.433,-11.004,0.0001245,-4.8e-06,0.0006439000000000001,
1762844112372361327,1762844112.3723614,1762844112,372056744,1762844112.3720567,imu1_frame,-0.014986,0.30044,-0.157952,3.971,-0.841,-10.662,0.00012220000000000002,-8.3e-06,0.0006652,
1762844112397964227,1762844112.3979645,1762844112,397565269,1762844112.3975654,imu1_frame,-0.089934,0.285397,-0.020495,3.658,-1.172,-10.351,0.00012,-9.5e-06,0.0006531,
1762844112423616960,1762844112.4236171,1762844112,422962961,1762844112.422963,imu1_frame,-0.130844,0.142819,-0.025842,2.927,-1.732,-9.827,0.0001154,-1.53e-05,0.0006542,
1762844112449368777,1762844112.449369,1762844112,448606819,1762844112.4486067,imu1_frame,-0.099998,0.058787,-0.019021,2.735,-1.801,-11.883,0.0001145,-3.5e-06,0.0006554,
1762844112474470219,1762844112.4744701,1762844112,473722470,1762844112.4737225,imu1_frame,-0.210305,0.187427,-0.086943,2.44,-1.885,-10.879,0.00011559999999999999,-4.7e-06,0.0006474,
1762844112499269703,1762844112.4992697,1762844112,498427579,1762844112.4984276,imu1_frame,-0.199963,0.166262,-0.104942,2.478,-1.813,-9.549,0.0001155,-9.4e-06,0.0006408000000000001,
1762844112524203104,1762844112.524203,1762844112,523405730,1762844112.5234058,imu1_frame,-0.157989,0.090571,-0.111173,2.233,-1.514,-8.568,0.0001077,-1.2800000000000001e-05,0.0006605,
1762844112549529588,1762844112.5495298,1762844112,548724088,1762844112.5487242,imu1_frame,-0.10633,0.042723,-0.035315,1.974,-2.044,-9.37,0.000111,-1.52e-05,0.0006513000000000001,
1762844112574606697,1762844112.5746067,1762844112,573766280,1762844112.5737662,imu1_frame,0.018282,0.048977,-0.066275,1.782,-2.056,-9.961,0.0001042,-2.1000000000000002e-05,0.0006631,
1762844112599599680,1762844112.5995998,1762844112,598597264,1762844112.5985973,imu1_frame,-0.013825,0.137897,0.03807,1.889,-1.294,-10.459,0.0001043,-1.5100000000000001e-05,0.0006563,
1762844112624573039,1762844112.624573,1762844112,623763582,1762844112.6237636,imu1_frame,0.039088,0.2449,0.051892,1.974,-2.173,-10.243,0.0001055,-1.04e-05,0.0006456,
1762844112648468899,1762844112.6484692,1762844112,647703691,1762844112.6477036,imu1_frame,0.032462,0.317528,-0.06634,2.291,-1.539,-8.414,9.88e-05,-1.62e-05,0.0006494,
1762844112673779966,1762844112.67378,1762844112,672901717,1762844112.6729016,imu1_frame,0.04754,0.264757,-0.088882,2.534,-1.35,-7.895,9.44e-05,-1.3700000000000001e-05,0.0006598000000000001,
1762844112699055075,1762844112.6990552,1762844112,698409992,1762844112.69841,imu1_frame,-0.101103,0.295004,-0.147565,2.763,-0.739,-7.575,9.420000000000001e-05,-2.08e-05,0.0006532,
1762844112724418475,1762844112.7244186,1762844112,723658934,1762844112.723659,imu1_frame,-0.09235,0.198337,-0.047663,2.704,-0.208,-7.342,8.75e-05,-2.66e-05,0.0006596,
1762844112750782833,1762844112.7507827,1762844112,747674085,1762844112.747674,imu1_frame,0.076292,0.025096,0.006133,2.292,-0.735,-7.473,8.67e-05,-1.12e-05,0.0006514,
1762844112773393610,1762844112.7733939,1762844112,772806777,1762844112.772807,imu1_frame,0.116049,-0.059014,0.010738,2.189,-1.279,-8.002,8.999999999999999e-05,-1.01e-05,0.0006488,
1762844112798325427,1762844112.7983255,1762844112,797746511,1762844112.7977464,imu1_frame,0.082627,-0.108421,-0.023955,2.489,-1.151,-8.32,9.09e-05,-1.96e-05,0.0006503,
1762844112824089661,1762844112.8240898,1762844112,823251161,1762844112.8232512,imu1_frame,0.083338,-0.146497,-0.064121,3.003,-0.881,-9.03,8.88e-05,-1.6e-05,0.0006595,
1762844112848743395,1762844112.8487434,1762844112,848045354,1762844112.8480453,imu1_frame,0.096113,-0.100164,-0.0288,3.731,0.202,-9.451,9.65e-05,-1.85e-05,0.0006466,
1762844112877190043,1762844112.8771904,1762844112,875541169,1762844112.8755412,imu1_frame,0.067049,-0.049788,-0.100577,3.743,-0.954,-9.902,9.43e-05,-1.96e-05,0.0006585,
1762844112922822264,1762844112.9228222,1762844112,906995066,1762844112.906995,imu1_frame,0.020392,0.108624,-0.318152,3.912,-0.783,-10.086,9.35e-05,-7e-07,0.0006529000000000001,
1762844112926922345,1762844112.9269223,1762844112,925538887,1762844112.9255388,imu1_frame,0.045817,0.159958,-0.295111,4.205,0.615,-10.239,9.14e-05,4.1000000000000006e-06,0.0006474,
1762844112947516456,1762844112.9475164,1762844112,947180123,1762844112.94718,imu1_frame,0.035188,0.206089,-0.075812,3.894,-0.282,-9.939,9.020000000000001e-05,1.7e-06,0.0006407,
1762844112972189315,1762844112.9721897,1762844112,971951316,1762844112.9719512,imu1_frame,0.172182,0.111272,-0.142252,3.552,-1.581,-9.838,8.66e-05,-1.36e-05,0.0006621,
1762844112997062883,1762844112.997063,1762844112,996909925,1762844112.9969099,imu1_frame,0.211357,0.067669,-0.334816,3.36,-2.233,-10.344,8.78e-05,-1.01e-05,0.0006474,
1762844113022576908,1762844113.022577,1762844113,22298533,1762844113.0222986,imu1_frame,0.123187,0.24371,-0.486752,3.797,-1.994,-9.892,8.13e-05,-4e-06,0.0006643,
1762844113047819142,1762844113.0478194,1762844113,47499642,1762844113.0474997,imu1_frame,0.101465,0.192173,-0.414184,4.367,-1.438,-8.323,7.94e-05,1.26e-05,0.0006546999999999999,
1762844113073770333,1762844113.0737703,1762844113,73141792,1762844113.0731418,imu1_frame,0.302197,-0.045004,-0.35651,4.389,-2.37,-8.779,8.16e-05,1.6100000000000002e-05,0.0006481,
1762844113098801067,1762844113.0988014,1762844113,98332109,1762844113.0983322,imu1_frame,0.32208,-0.161108,-0.445477,3.788,-3.025,-8.989,8.16e-05,1.1400000000000001e-05,0.0006455,
1762844113123985301,1762844113.1239855,1762844113,123324927,1762844113.1233249,imu1_frame,0.128552,-0.245653,-0.376023,2.69,-3.164,-10.715,8.38e-05,1.25e-05,0.0006523,
1762844113148548077,1762844113.1485481,1762844113,147878744,1762844113.1478786,imu1_frame,0.268708,-0.23215,-0.381424,1.282,-4.928,-11.88,8.92e-05,7.7e-06,0.0006539,
1762844113174400560,1762844113.1744006,1762844113,173437436,1762844113.1734374,imu1_frame,0.370026,-0.129102,-0.674257,1.089,-4.731,-11.289,8.83e-05,1.83e-05,0.0006578,
1762844113200915543,1762844113.2009156,1762844113,200114252,1762844113.2001143,imu1_frame,0.249711,-0.015709,-0.919257,1.853,-2.948,-9.192,9.19e-05,3.24e-05,0.0006591,
1762844113225027694,1762844113.2250278,1762844113,223754487,1762844113.2237544,imu1_frame,0.096144,-0.078287,-0.700347,3.189,0.346,-7.287,8.97e-05,3.2500000000000004e-05,0.000647,
1762844113247947971,1762844113.2479482,1762844113,247463555,1762844113.2474635,imu1_frame,0.22458,-0.452982,-0.183736,3.187,0.618,-6.622,9.21e-05,4.07e-05,0.0006443,
1762844113273696746,1762844113.273697,1762844113,273123372,1762844113.2731233,imu1_frame,0.128332,-0.51954,-0.06227,2.773,-0.867,-9.083,0.0001009,3.82e-05,0.0006568,
1762844113298294564,1762844113.2982945,1762844113,297672064,1762844113.297672,imu1_frame,-0.066175,-0.20515,-0.205251,2.314,-1.963,-9.552,0.0001076,3.69e-05,0.0006464999999999999,
1762844113322991006,1762844113.3229911,1762844113,322557465,1762844113.3225574,imu1_frame,-0.111893,-0.118486,-0.188056,2.395,-0.627,-8.178,0.0001075,3.33e-05,0.0006586,
1762844113349207448,1762844113.3492076,1762844113,348485198,1762844113.3484852,imu1_frame,0.043387,-0.20183,-0.075226,2.356,-1.205,-7.053,0.0001099,4.27e-05,0.0006532,
1762844113374219598,1762844113.3742197,1762844113,373434474,1762844113.3734345,imu1_frame,0.085822,-0.339689,-0.002521,2.706,-0.065,-6.41,0.0001144,4.38e-05,0.0006455,
1762844113400402706,1762844113.4004028,1762844113,399514665,1762844113.3995147,imu1_frame,-2.3e-05,-0.386904,0.160717,2.543,-0.651,-6.927,0.00011980000000000001,3.6700000000000004e-05,0.0006391,
1762844113425994273,1762844113.4259944,1762844113,424119858,1762844113.42412,imu1_frame,0.031454,-0.475226,0.267359,2.457,-1.665,-8.656,0.00012429999999999999,4.01e-05,0.0006527,
1762844113449075217,1762844113.4490752,1762844113,448455259,1762844113.4484553,imu1_frame,0.119366,-0.35117,0.181991,2.701,-2.001,-10.582,0.00013189999999999998,3.17e-05,0.0006464999999999999,
1762844113474290617,1762844113.4742908,1762844113,473492826,1762844113.4734929,imu1_frame,0.079509,-0.162275,0.159665,2.765,-2.459,-10.861,0.000134,2.8100000000000002e-05,0.0006506999999999999,
1762844113498683518,1762844113.4986835,1762844113,498228352,1762844113.4982283,imu1_frame,0.121893,-0.105182,0.202999,2.881,-2.184,-11.038,0.00013539999999999998,4.23e-05,0.0006466,
1762844113524148752,1762844113.524149,1762844113,523422086,1762844113.523422,imu1_frame,-0.210242,0.076737,-0.052503,2.667,-3.372,-10.946,0.00013780000000000002,5.05e-05,0.0006426,
1762844113547798278,1762844113.5477984,1762844113,547330070,1762844113.5473301,imu1_frame,-0.274334,0.157057,-0.170208,3.04,-2.307,-10.002,0.0001341,3.4000000000000007e-05,0.0006453,
1762844113572107888,1762844113.5721078,1762844113,571923888,1762844113.571924,imu1_frame,-0.268771,0.077702,-0.238114,3.142,-2.317,-8.782,0.0001318,2.93e-05,0.0006532,
1762844113597389288,1762844113.5973895,1762844113,597080205,1762844113.5970802,imu1_frame,-0.131557,-0.125051,-0.13315,3.579,-1.359,-9.607,0.0001339,2.46e-05,0.000648,
1762844113622905521,1762844113.6229057,1762844113,622408897,1762844113.6224089,imu1_frame,-0.414578,0.136594,-0.016414,3.57,-2.378,-10.8,0.0001305,1.87e-05,0.0006519000000000001,
1762844113649225838,1762844113.649226,1762844113,648478880,1762844113.648479,imu1_frame,-0.526559,0.32842,-0.150127,3.431,-1.728,-9.96,0.000125,2e-05,0.0006490000000000001,
1762844113673871697,1762844113.6738718,1762844113,673346072,1762844113.673346,imu1_frame,-0.508841,0.293144,0.236105,3.302,-0.063,-10.236,0.0001238,1.65e-05,0.0006476,
1762844113698777306,1762844113.6987774,1762844113,698162306,1762844113.6981623,imu1_frame,-0.392781,0.321492,0.573489,2.612,-1.99,-9.543,0.0001214,7.100000000000001e-06,0.0006463,
1762844113724093831,1762844113.7240942,1762844113,723320248,1762844113.7233202,imu1_frame,-0.287893,-0.147539,0.84835,2.769,-0.632,-9.166,0.00011559999999999999,-7e-06,0.0006515,
1762844113749152148,1762844113.7491524,1762844113,748259399,1762844113.7482593,imu1_frame,-0.262637,-0.043492,1.169344,2.252,-2.038,-14.038,0.00012220000000000002,-1.07e-05,0.0006438,
1762844113774896757,1762844113.7748969,1762844113,773917508,1762844113.7739174,imu1_frame,-0.064682,0.370941,0.772138,0.844,-4.541,-12.383,0.0001177,-1.3e-05,0.0006583,
1762844113799494158,1762844113.7994943,1762844113,798564950,1762844113.798565,imu1_frame,-0.003023,0.372969,0.169691,0.762,-4.103,-9.184,0.0001089,-8.1e-06,0.0006551,
1762844113822830059,1762844113.8228302,1762844113,822183935,1762844113.8221838,imu1_frame,-0.074434,0.224135,-0.445913,1.791,-2.464,-8.248,0.00011,-8.1e-06,0.0006472,
1762844113848486543,1762844113.8484867,1762844113,847865918,1762844113.8478658,imu1_frame,-0.041395,0.003207,-0.587586,3.184,0.616,-7.879,0.0001111,-6.9e-06,0.0006472,
1762844113874314401,1762844113.8743145,1762844113,873483235,1762844113.8734832,imu1_frame,-0.010787,-0.041841,-0.34805,3.755,0.899,-9.05,0.0001077,-1.4e-05,0.0006605,
1762844113898264094,1762844113.8982642,1762844113,897588720,1762844113.8975887,imu1_frame,0.068055,0.016653,-0.214396,3.492,-0.198,-8.983,0.000111,-1.4e-05,0.0006500000000000001,
1762844113924880577,1762844113.9248807,1762844113,924050453,1762844113.9240506,imu1_frame,0.004033,0.203411,-0.394501,3.193,-0.762,-8.583,0.00010449999999999999,-8e-06,0.0006575999999999999,
1762844113948718937,1762844113.948719,1762844113,947962229,1762844113.9479623,imu1_frame,-0.066538,0.170537,-0.272856,2.908,-0.159,-7.746,0.0001035,3e-07,0.0006561000000000001,
1762844113973371879,1762844113.973372,1762844113,972774088,1762844113.972774,imu1_frame,0.060775,0.066908,-0.07034,2.76,-0.078,-7.803,0.0001047,3.8e-06,0.0006468000000000001,
1762844113997946238,1762844113.9979463,1762844113,997379530,1762844113.9973795,imu1_frame,0.107327,0.03036,-0.15115,2.414,-1.334,-7.884,0.0001055,-1.1599999999999999e-05,0.000647,
1762844114024554013,1762844114.024554,1762844114,23717305,1762844114.0237174,imu1_frame,0.232146,-0.047239,-0.430003,2.472,-1.836,-7.841,9.99e-05,-1.26e-05,0.0006627,
1762844114049707913,1762844114.0497081,1762844114,48909997,1762844114.04891,imu1_frame,0.116288,-0.157407,-0.493507,3.32,0.599,-7.466,0.0001046,-3.3e-06,0.0006495,
1762844114074541897,1762844114.074542,1762844114,73730648,1762844114.0737307,imu1_frame,0.009882,-0.230317,-0.271363,4.1,1.051,-8.67,0.00010449999999999999,-4.5e-06,0.0006549,
1762844114104231503,1762844114.1042316,1762844114,102160004,1762844114.10216,imu1_frame,0.058643,-0.201126,-0.467721,4.009,-0.67,-9.453,0.000108,4.9e-06,0.0006575999999999999,
1762844114123817907,1762844114.1238182,1762844114,123130116,1762844114.12313,imu1_frame,0.255409,-0.117353,-0.275982,5.025,1.187,-10.292,0.00011260000000000001,9.6e-06,0.0006458000000000001,
1762844114146891559,1762844114.1468916,1762844114,146478934,1762844114.146479,imu1_frame,0.600135,-0.182734,0.17356,4.2,-1.951,-11.877,0.0001147,3.6e-06,0.0006393,
1762844114172211043,1762844114.1722112,1762844114,171984460,1762844114.1719844,imu1_frame,0.336299,0.351073,-0.170329,3.206,-2.368,-11.859,0.00011260000000000001,1.1900000000000001e-05,0.0006551,
1762844114196741319,1762844114.1967416,1762844114,196603152,1762844114.196603,imu1_frame,0.067279,0.415713,-0.349427,2.496,-1.716,-10.548,0.000106,1.44e-05,0.000644,
1762844114222841343,1762844114.2228415,1762844114,222488844,1762844114.2224889,imu1_frame,0.377368,0.26404,-0.394404,2.169,-2.699,-9.332,0.0001005,1.8100000000000003e-05,0.0006596999999999999,
1762844114247422244,1762844114.2474222,1762844114,247023370,1762844114.2470233,imu1_frame,0.490791,-0.075079,-0.469702,2.506,-3.001,-8.521,9.86e-05,3.35e-05,0.0006554,
1762844114273569769,1762844114.2735698,1762844114,272980561,1762844114.2729805,imu1_frame,0.379366,-0.286532,-0.47566,2.711,-2.699,-9.571,0.0001054,3.8100000000000005e-05,0.0006411,
1762844114299073461,1762844114.2990737,1762844114,298409628,1762844114.2984097,imu1_frame,0.08919,-0.304553,-0.430941,1.663,-3.788,-10.987,0.0001076,3.92e-05,0.0006452,
1762844114323122987,1762844114.323123,1762844114,322476738,1762844114.3224766,imu1_frame,0.027566,-0.075847,-0.711615,1.127,-3.628,-11.258,0.00010970000000000001,3.4500000000000005e-05,0.000656,
1762844114348937804,1762844114.3489377,1762844114,347652805,1762844114.347653,imu1_frame,0.113446,-0.047867,-0.977588,1.031,-3.028,-9.275,0.00010870000000000001,4.04e-05,0.0006492000000000001,
1762844114374547162,1762844114.3745472,1762844114,373798413,1762844114.3737984,imu1_frame,0.137181,-0.104506,-1.018387,1.696,-1.421,-7.738,0.0001076,4.04e-05,0.0006572,
1762844114399216938,1762844114.399217,1762844114,398367564,1762844114.3983676,imu1_frame,0.053157,-0.280301,-0.867286,2.512,0.431,-7.512,0.00010910000000000001,5.69e-05,0.0006504,
1762844114424820463,1762844114.4248207,1762844114,423917672,1762844114.4239178,imu1_frame,0.071652,-0.423012,-0.529645,3.02,0.203,-8.629,0.0001123,5.33e-05,0.0006439000000000001,
1762844114449087489,1762844114.4490876,1762844114,448426531,1762844114.4484265,imu1_frame,0.105478,-0.45343,-0.22011,3.05,-0.142,-9.565,0.0001179,5.5599999999999996e-05,0.0006455,
1762844114473825182,1762844114.4738255,1762844114,473120641,1762844114.4731207,imu1_frame,0.054457,-0.383034,-0.100654,2.339,-1.998,-10.922,0.0001234,5.31e-05,0.0006592,
1762844114499527040,1762844114.4995272,1762844114,498797124,1762844114.4987972,imu1_frame,0.038059,-0.200994,-0.275927,2.17,-2.033,-10.127,0.0001311,4.7100000000000006e-05,0.0006409,
1762844114524161816,1762844114.5241618,1762844114,523475316,1762844114.5234754,imu1_frame,-0.076765,-0.140067,-0.428636,2.596,-0.913,-8.257,0.00012880000000000001,4.7100000000000006e-05,0.0006488,
1762844114549260925,1762844114.5492609,1762844114,548523550,1762844114.5485237,imu1_frame,-0.192882,-0.183761,-0.328288,3.33,0.276,-7.371,0.0001336,6.48e-05,0.0006515,
1762844114573447284,1762844114.5734472,1762844114,572971951,1762844114.572972,imu1_frame,-0.108193,-0.246636,-0.254341,3.362,-0.349,-7.683,0.0001357,5.53e-05,0.0006397000000000001,
1762844114598573893,1762844114.598574,1762844114,598122643,1762844114.5981226,imu1_frame,-0.136376,-0.043469,-0.275602,3.24,-1.039,-8.703,0.00013780000000000002,5.17e-05,0.0006412,
1762844114623968752,1762844114.6239688,1762844114,623189544,1762844114.6231894,imu1_frame,-0.054575,-0.07417,-0.149585,3.175,-1.314,-8.502,0.00013769999999999999,4.58e-05,0.0006546,
1762844114648575361,1762844114.6485755,1762844114,647720445,1762844114.6477203,imu1_frame,-0.001119,-0.18259,-0.113191,3.006,-2.238,-8.437,0.0001376,4.1e-05,0.0006414,
1762844114674268511,1762844114.6742685,1762844114,673515720,1762844114.6735158,imu1_frame,0.055644,-0.198851,-0.156825,3.105,-2.512,-8.9,0.0001398,4.22e-05,0.0006521000000000001,
1762844114699284662,1762844114.6992848,1762844114,698652079,1762844114.698652,imu1_frame,0.061863,-0.185288,-0.220485,3.448,-2.213,-9.209,0.00014480000000000002,6.81e-05,0.0006494,
1762844114723966062,1762844114.7239661,1762844114,723377021,1762844114.723377,imu1_frame,-0.110933,-0.074357,-0.206461,3.754,-1.976,-10.085,0.0001457,5.6300000000000006e-05,0.0006443,
1762844114748123630,1762844114.7481236,1762844114,747525339,1762844114.7475255,imu1_frame,-0.059832,-0.039907,-0.182441,3.6,-2.194,-10.815,0.0001469,6.22e-05,0.0006389000000000001,
1762844114771790698,1762844114.7717907,1762844114,771606782,1762844114.7716067,imu1_frame,0.070119,2.4e-05,-0.213489,3.249,-2.437,-11.106,0.00014549999999999999,4.92e-05,0.0006483,
1762844114797045307,1762844114.7970455,1762844114,796899849,1762844114.7968998,imu1_frame,0.181343,-0.017704,-0.241781,3.039,-2.3,-10.864,0.0001478,5.27e-05,0.0006404,
1762844114822750290,1762844114.8227503,1762844114,822384832,1762844114.8223848,imu1_frame,0.03254,0.061409,-0.308763,3.294,-1.363,-11.389,0.0001467,5.27e-05,0.000651,
1762844114847714441,1762844114.8477147,1762844114,847404191,1762844114.8474042,imu1_frame,0.010941,0.096539,-0.074382,3.077,-0.337,-12.321,0.0001447,6.34e-05,0.0006508000000000001,
1762844114873593924,1762844114.873594,1762844114,872985966,1762844114.872986,imu1_frame,0.068673,0.217356,0.071395,2.264,-1.043,-13.068,0.0001425,6.34e-05,0.0006427000000000001,
1762844114899076825,1762844114.899077,1762844114,898423992,1762844114.898424,imu1_frame,0.100282,0.185512,-0.014943,1.455,-1.634,-11.725,0.0001426,6.81e-05,0.0006413,
1762844114924358308,1762844114.9243586,1762844114,923341851,1762844114.9233418,imu1_frame,0.094547,0.190474,-0.169446,1.513,-1.493,-10.552,0.0001369,6.23e-05,0.0006557,
1762844114948643501,1762844114.9486437,1762844114,948094835,1762844114.9480948,imu1_frame,-0.038852,0.244642,-0.284816,1.647,-0.794,-9.222,0.00013120000000000002,5.6500000000000005e-05,0.0006488,
1762844114974201110,1762844114.9742012,1762844114,973507943,1762844114.973508,imu1_frame,0.01573,0.191466,-0.350278,1.725,0.242,-8.579,0.0001301,5.54e-05,0.0006475,
1762844114999415052,1762844114.9994152,1762844114,998481552,1762844114.9984815,imu1_frame,-0.113364,0.16515,-0.152782,2.021,0.523,-9.256,0.0001258,6.25e-05,0.0006565,
1762844115023839286,1762844115.0238392,1762844115,23139995,1762844115.02314,imu1_frame,-0.233261,0.167003,-0.077496,2.01,-0.189,-9.596,0.000128,6.0100000000000004e-05,0.0006433,
1762844115049975269,1762844115.0499754,1762844115,48651603,1762844115.0486517,imu1_frame,0.051148,0.037495,0.046997,1.932,-0.688,-9.917,0.0001246,5.67e-05,0.0006458000000000001,
1762844115073355837,1762844115.073356,1762844115,72764671,1762844115.0727646,imu1_frame,0.097329,0.152796,-0.100732,1.917,-1.687,-9.882,0.00012230000000000002,5.55e-05,0.0006577,
1762844115099539904,1762844115.09954,1762844115,98705946,1762844115.098706,imu1_frame,0.048141,0.172098,-0.139539,2.369,-0.017,-8.135,0.0001235,5.55e-05,0.0006525,
1762844115123345597,1762844115.1233459,1762844115,122679139,1762844115.1226792,imu1_frame,-0.057913,0.149646,-0.06115,2.572,0.062,-7.134,0.0001179,5.32e-05,0.0006535,
1762844115149512288,1762844115.1495123,1762844115,147610706,1762844115.1476107,imu1_frame,-0.034071,0.095246,-0.060864,2.654,-0.475,-7.139,0.00011360000000000001,6.4e-05,0.0006492000000000001,
1762844115173854939,1762844115.173855,1762844115,173226148,1762844115.173226,imu1_frame,0.040902,0.083753,-0.189844,2.778,-0.645,-7.896,0.0001182,7.099999999999999e-05,0.000648,
1762844115198673465,1762844115.1986735,1762844115,197883424,1762844115.1978834,imu1_frame,0.026814,0.112731,-0.165691,3.072,0.837,-8.103,0.00011590000000000001,6.86e-05,0.0006506,
1762844115224440198,1762844115.2244403,1762844115,223658032,1762844115.223658,imu1_frame,0.014174,0.050861,0.048089,3.154,0.209,-8.293,0.00011250000000000001,6.0400000000000004e-05,0.0006598000000000001,
1762844115248983641,1762844115.2489836,1762844115,248372933,1762844115.248373,imu1_frame,0.012844,0.06841,0.097206,3.624,-0.568,-9.454,0.0001134,5.33e-05,0.0006466,
1762844115274227333,1762844115.2742276,1762844115,273568917,1762844115.2735689,imu1_frame,0.023015,0.303728,-0.028313,3.712,-1.997,-9.639,0.00011020000000000001,5.81e-05,0.0006598000000000001,
1762844115299128859,1762844115.299129,1762844115,298282276,1762844115.2982824,imu1_frame,0.071113,0.259049,-0.245905,3.389,-1.863,-7.866,0.00010150000000000001,6.54e-05,0.0006579000000000001,
1762844115322802843,1762844115.322803,1762844115,322213760,1762844115.3222136,imu1_frame,0.323977,-0.061061,-0.227615,4.05,-0.026,-9.438,0.0001027,7.13e-05,0.0006512,
1762844115348185327,1762844115.3481855,1762844115,347421244,1762844115.3474212,imu1_frame,0.599719,-0.07702,0.099844,4.157,-0.137,-10.193,0.0001016,7.13e-05,0.0006485,
1762844115372376895,1762844115.372377,1762844115,372162270,1762844115.3721623,imu1_frame,0.614291,0.028805,0.174866,3.95,-0.416,-11.582,0.0001038,7.36e-05,0.0006552,
1762844115397184504,1762844115.3971846,1762844115,397030462,1762844115.3970304,imu1_frame,0.461684,0.251029,-0.076792,3.272,-1.208,-10.694,0.00010190000000000001,8.66e-05,0.0006523,
1762844115422144321,1762844115.4221444,1762844115,421976405,1762844115.4219763,imu1_frame,0.36781,0.246018,-0.305069,3.216,-1.237,-9.186,9.750000000000001e-05,8.790000000000001e-05,0.0006574,
1762844115447766888,1762844115.4477668,1762844115,447453555,1762844115.4474535,imu1_frame,0.445115,0.169867,-0.360711,3.779,-0.985,-8.007,9.56e-05,0.00010570000000000001,0.0006518,
1762844115472282372,1762844115.4722824,1762844115,471887456,1762844115.4718874,imu1_frame,0.122862,-0.040493,-0.13185,3.557,-1.128,-8.031,9.460000000000001e-05,0.0001116,0.0006435999999999999,
1762844115498733480,1762844115.4987338,1762844115,498224397,1762844115.4982245,imu1_frame,0.324826,-0.393418,0.084247,3.038,-2.476,-9.978,9.790000000000001e-05,0.0001116,0.0006398,
1762844115524450130,1762844115.52445,1762844115,523629547,1762844115.5236297,imu1_frame,0.484856,-0.587906,0.212537,1.688,-3.639,-11.912,0.0001023,0.0001079,0.0006546999999999999,
1762844115549111448,1762844115.5491116,1762844115,548351406,1762844115.5483513,imu1_frame,0.267653,-0.314603,-0.167506,1.0,-5.346,-13.257,0.00011350000000000001,0.00011360000000000001,0.0006485999999999999,
1762844115574498140,1762844115.5744982,1762844115,573785890,1762844115.5737858,imu1_frame,-0.105948,-0.017992,-0.537893,1.271,-3.57,-10.081,0.0001115,0.0001231,0.0006524,
1762844115599753498,1762844115.5997536,1762844115,598918457,1762844115.5989184,imu1_frame,-0.131875,-0.089485,-0.402678,2.039,-0.952,-9.484,0.0001093,0.00012429999999999999,0.0006522,
1762844115624310274,1762844115.6243105,1762844115,623446275,1762844115.6234462,imu1_frame,-0.230538,-0.190095,-0.063687,1.668,-1.131,-8.639,0.0001148,0.0001219,0.0006392,
1762844115650886090,1762844115.6508863,1762844115,649665175,1762844115.649665,imu1_frame,-0.284623,-0.131903,-0.043873,1.666,-1.751,-9.207,0.0001171,0.0001266,0.0006419,
1762844115674604034,1762844115.6746042,1762844115,673820034,1762844115.67382,imu1_frame,0.028388,-0.107001,0.010839,1.845,-1.184,-9.187,0.00011559999999999999,0.00011,0.0006541,
1762844115700798017,1762844115.700798,1762844115,699935267,1762844115.6999352,imu1_frame,0.046397,0.005646,0.16843,2.007,-1.268,-8.764,0.0001167,0.0001065,0.0006475,
1762844115724119210,1762844115.7241194,1762844115,723324502,1762844115.7233245,imu1_frame,-0.026571,-0.027947,0.06408,1.955,-1.605,-7.249,0.0001178,0.00010530000000000001,0.0006529000000000001,
1762844115750390818,1762844115.750391,1762844115,749496485,1762844115.7494965,imu1_frame,-0.11334,-0.206239,0.008263,2.42,0.47,-7.038,0.0001191,0.0001147,0.0006502,
1762844115774650677,1762844115.7746508,1762844115,773846595,1762844115.7738466,imu1_frame,-0.544613,-0.071987,0.523366,2.556,0.573,-7.728,0.0001235,0.0001123,0.0006371,
1762844115799115162,1762844115.7991154,1762844115,798213496,1762844115.7982135,imu1_frame,-0.450583,-0.059716,0.481691,1.778,-1.996,-7.761,0.0001289,0.00010860000000000001,0.0006414,
1762844115824830145,1762844115.8248303,1762844115,823897854,1762844115.8238978,imu1_frame,-0.032377,-0.261248,0.213505,1.59,-2.666,-8.19,0.0001263,8.97e-05,0.0006562,
1762844115849596629,1762844115.8495967,1762844115,848798921,1762844115.848799,imu1_frame,-0.120218,-0.154091,0.247958,2.542,-0.262,-9.074,0.000133,8.840000000000001e-05,0.0006446,
1762844115874982529,1762844115.8749828,1762844115,873981738,1762844115.8739817,imu1_frame,-0.119091,-0.069827,0.432106,2.917,-1.144,-9.171,0.0001363,8.599999999999999e-05,0.0006501,
1762844115899391222,1762844115.8993914,1762844115,898537014,1762844115.898537,imu1_frame,0.000495,0.074725,0.419122,3.825,-1.353,-8.592,0.0001353,9.43e-05,0.0006553,
1762844115923706540,1762844115.9237068,1762844115,923096707,1762844115.9230967,imu1_frame,-0.09228,-0.145751,0.37703,4.597,-1.264,-7.572,0.0001374,8.83e-05,0.0006393999999999999,
1762844115947875191,1762844115.9478753,1762844115,947218441,1762844115.9472184,imu1_frame,-0.315668,-0.220733,0.514047,4.739,-1.435,-9.384,0.0001418,8.59e-05,0.0006450000000000001,
1762844115972322133,1762844115.9723222,1762844115,972108217,1762844115.9721081,imu1_frame,-0.399122,-0.154986,0.606677,4.17,-3.172,-10.283,0.0001416,7.64e-05,0.0006545,
1762844115997045659,1762844115.9970458,1762844115,996900284,1762844115.9969003,imu1_frame,-0.186008,-0.121823,0.105383,3.5,-5.464,-10.188,0.00014810000000000002,6.57e-05,0.0006496,
1762844116022031268,1762844116.0220315,1762844116,21893435,1762844116.0218935,imu1_frame,-0.053574,-0.15099,-0.308177,3.823,-4.07,-10.483,0.0001482,7.280000000000001e-05,0.0006549,
1762844116047748835,1762844116.047749,1762844116,47403293,1762844116.0474033,imu1_frame,-0.193075,-0.116877,-0.267121,4.354,-2.284,-11.412,0.0001483,7.630000000000001e-05,0.0006522,
1762844116073148402,1762844116.0731485,1762844116,72632236,1762844116.0726323,imu1_frame,-0.183097,-0.05101,-0.14126,4.339,-2.48,-11.793,0.0001515,6.92e-05,0.0006404,
1762844116098871552,1762844116.0988717,1762844116,98091886,1762844116.0980918,imu1_frame,-0.138756,-0.044888,-0.100054,3.663,-2.668,-12.04,0.0001525,6.68e-05,0.0006472,
1762844116123966661,1762844116.123967,1762844116,122794745,1762844116.1227946,imu1_frame,-0.358642,-0.003082,-0.123595,3.194,-1.665,-12.145,0.000148,6.09e-05,0.0006563,
1762844116148433603,1762844116.1484337,1762844116,147701854,1762844116.1477017,imu1_frame,-0.363846,0.044892,0.104836,1.98,-2.029,-12.454,0.00015110000000000001,5.2600000000000005e-05,0.0006485999999999999,
1762844116173390087,1762844116.1733902,1762844116,172793046,1762844116.1727931,imu1_frame,-0.113946,0.121899,-0.048769,0.748,-3.082,-12.34,0.00015110000000000001,5.02e-05,0.000662,
1762844116199561029,1762844116.199561,1762844116,198661654,1762844116.1986616,imu1_frame,0.068958,0.235211,-0.351175,0.43,-2.323,-11.2,0.00014680000000000002,5.74e-05,0.0006550000000000001,
1762844116223873888,1762844116.2238739,1762844116,223140555,1762844116.2231405,imu1_frame,0.095395,0.243528,-0.441967,0.726,-0.631,-9.027,0.0001457,5.9800000000000003e-05,0.0006482,
1762844116249102330,1762844116.2491024,1762844116,248392581,1762844116.2483926,imu1_frame,0.146259,0.134685,-0.338476,0.694,-0.997,-8.215,0.0001391,6.110000000000001e-05,0.0006492000000000001,
1762844116274353481,1762844116.2743535,1762844116,273578273,1762844116.2735782,imu1_frame,0.083201,0.143865,-0.561613,0.62,-1.712,-8.481,0.0001348,6.950000000000001e-05,0.0006622,
1762844116298817965,1762844116.298818,1762844116,298089757,1762844116.2980897,imu1_frame,0.044748,0.198309,-0.65818,1.012,0.08,-8.176,0.00013600000000000003,7.06e-05,0.0006543,
1762844116323337782,1762844116.3233378,1762844116,322616616,1762844116.3226166,imu1_frame,-0.151215,0.201087,-0.363428,1.583,0.07,-8.065,0.000128,5.9e-05,0.0006633,
1762844116348594974,1762844116.3485951,1762844116,348053766,1762844116.3480537,imu1_frame,0.032206,0.03752,-0.295277,1.845,-0.979,-7.425,0.0001271,7.08e-05,0.0006551,
1762844116373431542,1762844116.3734317,1762844116,372826709,1762844116.3728268,imu1_frame,0.073026,-0.134913,-0.371093,1.664,-1.266,-7.259,0.000126,6.96e-05,0.0006524,
1762844116399476400,1762844116.3994765,1762844116,398393651,1762844116.3983936,imu1_frame,-0.009001,-0.151523,-0.29295,1.889,-0.141,-9.134,0.0001303,6.72e-05,0.0006500000000000001,
1762844116423724593,1762844116.4237247,1762844116,423201385,1762844116.4232013,imu1_frame,0.00986,-0.200014,-0.380529,1.742,-1.359,-9.684,0.0001315,6.83e-05,0.0006594,
1762844116448760077,1762844116.4487603,1762844116,448140535,1762844116.4481406,imu1_frame,0.080698,-0.197878,-0.61263,2.11,-0.516,-9.568,0.0001359,6.59e-05,0.0006490000000000001,
1762844116473786936,1762844116.473787,1762844116,473091103,1762844116.4730911,imu1_frame,-0.023281,-0.171881,-0.579169,2.38,0.531,-9.045,0.0001349,7.3e-05,0.0006582000000000001,
1762844116498930711,1762844116.4989307,1762844116,498252170,1762844116.4982522,imu1_frame,-0.152497,-0.128726,-0.485675,2.881,1.02,-8.944,0.0001361,7.77e-05,0.0006569000000000001,
1762844116523961362,1762844116.5239615,1762844116,523335529,1762844116.5233355,imu1_frame,-0.170538,-0.075829,-0.401484,3.172,1.238,-8.559,0.0001371,7.42e-05,0.0006489,
1762844116548485429,1762844116.5484855,1762844116,548196638,1762844116.5481966,imu1_frame,-0.147425,-0.025773,-0.307271,3.487,0.594,-8.907,0.00014050000000000003,7.41e-05,0.0006464,
1762844116572376414,1762844116.5723765,1762844116,571952831,1762844116.5719528,imu1_frame,-0.118425,0.108764,-0.313359,3.65,0.705,-8.652,0.0001393,7.06e-05,0.0006624000000000001,
1762844116596688940,1762844116.596689,1762844116,596542065,1762844116.5965421,imu1_frame,-0.098564,0.138544,-0.177852,3.973,0.913,-9.135,0.0001359,6.950000000000001e-05,0.0006529000000000001,
1762844116621985257,1762844116.6219854,1762844116,621841882,1762844116.621842,imu1_frame,0.108366,0.175019,-0.134787,4.197,0.325,-10.042,0.0001324,6.12e-05,0.0006622,
1762844116647666824,1762844116.6476672,1762844116,647316282,1762844116.6473162,imu1_frame,0.305391,0.127822,-0.017203,4.16,-0.234,-10.389,0.0001283,7.79e-05,0.0006578,
1762844116672795557,1762844116.6727958,1762844116,672347433,1762844116.6723475,imu1_frame,0.312005,0.100291,-0.040187,3.914,-1.272,-10.576,0.0001262,8.26e-05,0.0006469000000000001,
1762844116698225083,1762844116.6982253,1762844116,697675208,1762844116.6976752,imu1_frame,0.214271,0.191723,-0.230808,3.756,-1.302,-11.19,0.0001241,8.86e-05,0.0006428,
1762844116724122233,1762844116.7241223,1762844116,723425983,1762844116.7234259,imu1_frame,0.094165,0.242115,-0.257225,3.447,-0.893,-10.002,0.0001227,7.21e-05,0.0006536,
1762844116749254466,1762844116.7492545,1762844116,748647009,1762844116.748647,imu1_frame,0.522039,-0.144728,-0.037208,3.03,-0.815,-10.734,0.0001241,8.98e-05,0.0006481,
1762844116774287242,1762844116.7742875,1762844116,773499367,1762844116.7734993,imu1_frame,0.4742,-0.297233,0.044924,2.213,-1.808,-10.511,0.0001263,8.85e-05,0.0006562,
1762844116798898476,1762844116.7988985,1762844116,798272560,1762844116.7982726,imu1_frame,0.362017,-0.305843,-0.173871,1.276,-3.118,-11.288,0.0001289,0.00010510000000000001,0.0006521000000000001,
1762844116824087543,1762844116.8240876,1762844116,823470710,1762844116.8234706,imu1_frame,0.173618,-0.039,-0.590295,1.174,-2.539,-11.362,0.0001311,0.000105,0.0006429000000000001,
1762844116849120277,1762844116.8491204,1762844116,848370611,1762844116.8483706,imu1_frame,0.1529,0.065545,-0.697588,1.609,-0.408,-9.65,0.0001346,0.00011559999999999999,0.0006363,
1762844116874446302,1762844116.8744464,1762844116,873633553,1762844116.8736336,imu1_frame,0.044444,-0.104082,-0.430296,2.017,0.649,-8.271,0.0001311,0.0001074,0.0006496,
1762844116899563245,1762844116.8995633,1762844116,898386787,1762844116.8983867,imu1_frame,0.084717,-0.26493,-0.174735,2.075,-0.03,-8.287,0.00013330000000000001,0.0001038,0.0006431,
1762844116924389020,1762844116.9243891,1762844116,923465604,1762844116.9234655,imu1_frame,0.1373,-0.315369,-0.016069,1.885,-0.657,-8.916,0.0001388,0.0001049,0.0006500000000000001,
1762844116948593463,1762844116.9485936,1762844116,948102255,1762844116.9481022,imu1_frame,0.016377,-0.263979,0.032874,1.557,-1.16,-9.261,0.0001391,0.0001191,0.0006392,
1762844116974456988,1762844116.9744573,1762844116,973729364,1762844116.9737294,imu1_frame,0.006575,-0.205566,-0.022723,1.569,-1.944,-9.665,0.00014460000000000002,0.0001178,0.0006355,
1762844116999335305,1762844116.9993355,1762844116,998499681,1762844116.9984996,imu1_frame,-0.102677,-0.087878,-0.125314,2.031,-0.95,-8.13,0.0001457,0.0001166,0.0006289,
1762844117024110998,1762844117.0241113,1762844117,23354082,1762844117.023354,imu1_frame,-0.034196,-0.173098,-0.213127,2.301,-0.911,-7.565,0.0001467,0.0001095,0.0006463,
1762844117050146439,1762844117.0501466,1762844117,47805524,1762844117.0478055,imu1_frame,-0.030747,-0.13862,-0.267878,2.786,-0.351,-8.09,0.00015,0.0001094,0.0006385,
1762844117075498798,1762844117.0754988,1762844117,74670299,1762844117.0746703,imu1_frame,-0.04782,-0.163746,-0.000529,2.898,0.035,-8.102,0.00015,0.0001094,0.0006464999999999999,
1762844117099375324,1762844117.0993755,1762844117,98673366,1762844117.0986733,imu1_frame,-0.034888,-0.086266,0.196303,2.545,-1.401,-9.507,0.0001523,0.0001141,0.0006385999999999999,
1762844117123673559,1762844117.1236737,1762844117,123060976,1762844117.123061,imu1_frame,0.134598,-0.025363,0.04813,2.006,-3.371,-9.688,0.00015470000000000002,0.0001211,0.0006346,
1762844117148125001,1762844117.148125,1762844117,147625752,1762844117.1476257,imu1_frame,0.284615,0.126219,-0.193778,2.407,-2.742,-9.965,0.00015570000000000002,0.0001176,0.0006334,
1762844117174085151,1762844117.1740851,1762844117,173438985,1762844117.173439,imu1_frame,0.011712,0.101197,-0.09275,2.504,-1.566,-7.931,0.00014910000000000002,0.0001177,0.0006424,
1762844117199383010,1762844117.1993833,1762844117,198438802,1762844117.198439,imu1_frame,0.166485,-0.133603,0.038396,2.48,-2.306,-10.445,0.00015140000000000002,0.0001224,0.0006318000000000001,
1762844117228355991,1762844117.2283561,1762844117,227686783,1762844117.227687,imu1_frame,0.322254,-0.095917,-0.212005,2.347,-2.571,-12.12,0.0001535,0.00011640000000000001,0.0006453,
1762844117247590812,1762844117.247591,1762844117,247103187,1762844117.2471032,imu1_frame,0.057328,0.29926,-0.348158,2.814,-1.287,-12.552,0.0001493,0.0001307,0.0006422,
1762844117273914962,1762844117.273915,1762844117,273038171,1762844117.2730381,imu1_frame,-0.329566,0.377948,-0.058185,2.907,0.731,-10.475,0.0001461,0.0001367,0.0006313,
1762844117299464195,1762844117.2994642,1762844117,298635446,1762844117.2986355,imu1_frame,-0.280646,-0.040143,0.238682,2.308,-0.13,-11.087,0.00014460000000000002,0.0001166,0.0006328000000000001,
1762844117323202805,1762844117.3232028,1762844117,322613597,1762844117.3226137,imu1_frame,0.096453,-0.232184,0.245207,1.411,-1.244,-13.595,0.00014230000000000002,0.00011310000000000001,0.0006461,
1762844117348502039,1762844117.3485022,1762844117,347908789,1762844117.3479087,imu1_frame,-0.02484,0.170083,0.012953,1.171,-1.572,-14.078,0.00015120000000000002,0.00011169999999999999,0.0006412,
1762844117374092231,1762844117.3740923,1762844117,373316981,1762844117.373317,imu1_frame,-0.080196,0.446953,-0.180297,1.294,-0.684,-11.088,0.0001412,0.0001143,0.0006473,
1762844117398431132,1762844117.3984313,1762844117,397933424,1762844117.3979335,imu1_frame,0.026427,0.37901,-0.184183,1.951,0.959,-8.248,0.0001371,0.0001297,0.0006389000000000001,
1762844117424065115,1762844117.424065,1762844117,423381866,1762844117.4233818,imu1_frame,0.074783,0.139321,0.060419,2.139,0.9,-7.67,0.0001326,0.0001239,0.0006348,
1762844117448734058,1762844117.448734,1762844117,448141850,1762844117.4481418,imu1_frame,0.045542,0.044906,0.148577,2.006,-0.149,-8.402,0.0001347,0.0001215,0.0006309,
1762844117473716250,1762844117.4737163,1762844117,472792792,1762844117.4727929,imu1_frame,0.040794,0.050593,-0.04871,1.752,-1.394,-9.231,0.00013020000000000002,0.0001157,0.0006468000000000001,
1762844117499238567,1762844117.4992387,1762844117,498354776,1762844117.4983547,imu1_frame,0.029095,0.1485,-0.146862,1.98,-0.815,-8.898,0.000128,0.0001157,0.0006413,
1762844117523412301,1762844117.5234122,1762844117,522770635,1762844117.5227706,imu1_frame,-0.01406,0.216477,-0.177424,2.522,0.192,-8.208,0.0001268,0.0001134,0.0006479000000000001,
1762844117549888826,1762844117.5498888,1762844117,549219701,1762844117.5492196,imu1_frame,0.039291,0.195423,0.045028,2.682,0.355,-6.892,0.0001238,0.0001324,0.0006422,
1762844117574277893,1762844117.574278,1762844117,573453894,1762844117.573454,imu1_frame,0.118599,0.05436,0.130151,2.489,-0.414,-7.124,0.0001237,0.0001264,0.0006316000000000001,
1762844117598959669,1762844117.5989597,1762844117,598285753,1762844117.5982857,imu1_frame,0.173708,-0.016016,-0.036108,2.106,-1.291,-7.372,0.0001215,0.00012770000000000001,0.0006342,
1762844117623830237,1762844117.6238303,1762844117,623089320,1762844117.6230893,imu1_frame,0.121651,-0.053906,-0.075811,2.418,-0.117,-8.569,0.00012030000000000001,0.000123,0.0006448000000000001,
1762844117648634762,1762844117.648635,1762844117,648050471,1762844117.6480505,imu1_frame,0.024524,-0.017207,0.107655,2.955,0.586,-9.204,0.0001238,0.0001324,0.0006342,
1762844117673945246,1762844117.6739454,1762844117,673249955,1762844117.67325,imu1_frame,0.156615,0.025169,0.036341,3.094,-0.859,-9.369,0.0001237,0.0001241,0.0006463,
1762844117700262229,1762844117.7002623,1762844117,699566521,1762844117.6995666,imu1_frame,0.187489,0.103609,-0.120845,3.401,-0.059,-8.716,0.0001228,0.0001347,0.0006355,
1762844117723418297,1762844117.7234185,1762844117,722765298,1762844117.7227652,imu1_frame,0.033371,0.031166,0.077074,3.754,0.867,-9.763,0.0001252,0.00014649999999999998,0.0006315,
1762844117749106448,1762844117.7491066,1762844117,748397115,1762844117.748397,imu1_frame,0.037967,-0.039646,0.193413,3.9,-0.212,-11.198,0.0001227,0.00013120000000000002,0.0006302,
1762844117773782640,1762844117.7737827,1762844117,773095390,1762844117.7730954,imu1_frame,0.192973,0.163751,-0.042043,3.708,-1.654,-11.862,0.0001206,0.0001383,0.0006433,
1762844117799539623,1762844117.7995398,1762844117,798816791,1762844117.7988167,imu1_frame,0.12738,0.23989,-0.138659,3.721,-0.608,-11.016,0.0001182,0.0001289,0.0006286000000000001,
1762844117824120358,1762844117.8241205,1762844117,823433900,1762844117.8234339,imu1_frame,-0.024115,0.189376,-0.141808,3.564,-2.047,-10.165,0.0001139,0.00013250000000000002,0.0006457,
1762844117849188591,1762844117.8491888,1762844117,848486050,1762844117.848486,imu1_frame,0.066907,0.015352,-0.203393,3.438,-2.413,-10.431,0.0001132,0.000155,0.0006387000000000001,
1762844117874504617,1762844117.8745048,1762844117,873690909,1762844117.8736908,imu1_frame,0.150215,-0.122956,-0.134776,2.958,-2.212,-10.893,0.00011300000000000001,0.00014319999999999998,0.0006349,
1762844117902158974,1762844117.902159,1762844117,901382183,1762844117.9013822,imu1_frame,0.251114,-0.201805,-0.196676,2.018,-3.432,-11.758,0.0001162,0.0001372,0.0006298,
1762844117924332001,1762844117.9243321,1762844117,923522835,1762844117.923523,imu1_frame,0.25914,-0.082362,-0.515301,1.438,-3.774,-10.794,0.0001132,0.0001527,0.0006361,
1762844117948776611,1762844117.9487767,1762844117,948262319,1762844117.9482622,imu1_frame,0.171331,-0.110063,-0.706993,1.294,-2.826,-8.226,0.0001175,0.0001467,0.000631,
1762844117974123636,1762844117.9741237,1762844117,973397220,1762844117.9733973,imu1_frame,0.327057,-0.258726,-0.570099,1.726,-1.4,-7.828,0.00011650000000000001,0.00015140000000000002,0.0006323,
1762844117999531786,1762844117.999532,1762844117,998693912,1762844117.998694,imu1_frame,0.165277,-0.268254,-0.357424,1.809,-1.574,-8.36,0.0001167,0.00016439999999999998,0.0006335,
1762844118024183479,1762844118.0241838,1762844118,23419229,1762844118.0234191,imu1_frame,0.202522,-0.192405,-0.332522,1.626,-2.577,-9.453,0.000118,0.00017150000000000002,0.0006188000000000001,
1762844118048983504,1762844118.0489836,1762844118,48350421,1762844118.0483503,imu1_frame,0.299382,-0.185169,-0.334427,1.355,-2.535,-10.015,0.0001191,0.00017150000000000002,0.0006175000000000001,
1762844118073824738,1762844118.073825,1762844118,73131739,1762844118.0731318,imu1_frame,0.217266,-0.062562,-0.352871,1.416,-2.123,-10.067,0.0001214,0.0001797,0.0006282,
1762844118102938095,1762844118.1029382,1762844118,102151887,1762844118.1021519,imu1_frame,0.182533,0.02671,-0.349911,1.604,-1.454,-9.027,0.00012130000000000001,0.0001726,0.0006189,
1762844118124063289,1762844118.1240633,1762844118,123393165,1762844118.123393,imu1_frame,0.175254,0.026349,-0.363132,1.958,-1.082,-8.022,0.000118,0.00017380000000000002,0.0006281,
1762844118148828315,1762844118.1488285,1762844118,148317232,1762844118.1483173,imu1_frame,0.230796,-0.058326,-0.34647,2.122,-0.943,-6.95,0.000115,0.0001881,0.0006184,
1762844118173735841,1762844118.173736,1762844118,173227591,1762844118.1732275,imu1_frame,0.127995,-0.15574,-0.287436,2.666,-0.75,-7.737,0.0001172,0.0001916,0.0006105,
1762844118199089324,1762844118.1990895,1762844118,198244783,1762844118.1982448,imu1_frame,0.07618,-0.111802,-0.242546,3.088,-0.785,-8.063,0.0001194,0.00019040000000000002,0.0006119,
1762844118223935767,1762844118.2239358,1762844118,223210642,1762844118.2232106,imu1_frame,0.025835,-0.049108,-0.136955,3.559,-0.86,-7.888,0.0001161,0.0001916,0.0006238,
1762844118248863584,1762844118.2488637,1762844118,248277376,1762844118.2482774,imu1_frame,0.015866,-0.078831,-0.07651,3.631,-1.116,-7.284,0.0001183,0.00018920000000000002,0.0006131999999999999,
1762844118274227151,1762844118.2742274,1762844118,272676569,1762844118.2726765,imu1_frame,0.004952,-0.22516,0.077437,3.447,-1.693,-8.746,0.0001204,0.00018329999999999998,0.0006228000000000001,
1762844118298511469,1762844118.2985115,1762844118,297835011,1762844118.297835,imu1_frame,0.075548,-0.191526,0.117802,3.376,-2.055,-9.909,0.00012080000000000001,0.00020219999999999998,0.0006185,
1762844118322912536,1762844118.3229127,1762844118,322320787,1762844118.3223207,imu1_frame,-0.254493,0.087659,0.034495,3.206,-3.067,-11.154,0.000125,0.00019150000000000002,0.0006069000000000001,
1762844118348953561,1762844118.3489537,1762844118,348227312,1762844118.3482273,imu1_frame,-0.246211,0.138847,-0.052668,3.133,-2.681,-10.817,0.0001262,0.00019500000000000002,0.0006069000000000001,
1762844118374084545,1762844118.3740847,1762844118,373344587,1762844118.3733447,imu1_frame,-0.176225,0.118424,-0.02987,3.01,-2.312,-10.973,0.0001192,0.0001797,0.0006294,
1762844118398740779,1762844118.3987408,1762844118,398217780,1762844118.3982177,imu1_frame,-0.152281,0.10474,-0.052006,2.948,-2.823,-11.065,0.0001214,0.0001762,0.0006202,
1762844118424113596,1762844118.4241138,1762844118,423364180,1762844118.4233642,imu1_frame,-0.269191,0.225758,-0.273549,3.438,-2.137,-11.279,0.0001158,0.0001751,0.000624,
1762844118449077330,1762844118.4490774,1762844118,448428456,1762844118.4484284,imu1_frame,-0.40846,0.255833,-0.229866,3.958,-0.008,-10.427,0.0001116,0.0001858,0.0006236000000000001,
1762844118473867481,1762844118.4738677,1762844118,473339689,1762844118.4733398,imu1_frame,-0.363578,0.137848,0.077732,4.214,0.734,-11.456,0.0001114,0.000174,0.0006184,
1762844118500523089,1762844118.500523,1762844118,499691339,1762844118.4996912,imu1_frame,-0.228086,0.212352,0.291721,3.318,-0.279,-11.189,0.0001103,0.0001787,0.0006156,
1762844118523469032,1762844118.5234692,1762844118,522833408,1762844118.5228333,imu1_frame,-0.065802,0.195005,0.307043,2.453,-1.424,-9.55,0.0001077,0.0001551,0.0006303999999999999,
1762844118548833558,1762844118.5488336,1762844118,548336266,1762844118.5483363,imu1_frame,-0.129023,0.115053,0.328588,1.753,-1.66,-9.298,0.0001088,0.0001563,0.0006211,
1762844118574831791,1762844118.574832,1762844118,574121541,1762844118.5741215,imu1_frame,-0.162647,0.075722,0.222849,1.043,-2.665,-9.775,0.00010530000000000001,0.0001504,0.0006344,
1762844118598638025,1762844118.5986383,1762844118,598104859,1762844118.598105,imu1_frame,-0.002396,-0.021811,-0.011036,0.849,-2.678,-9.935,0.0001078,0.000161,0.0006224,
1762844118628815714,1762844118.6288157,1762844118,627939340,1762844118.6279392,imu1_frame,0.007477,-0.022855,-0.204954,1.186,-1.522,-9.885,0.00011,0.000161,0.0006185,
1762844118648221744,1762844118.6482217,1762844118,647707786,1762844118.6477077,imu1_frame,-0.015703,0.013492,-0.264438,1.86,-0.776,-9.628,0.0001067,0.00016109999999999999,0.0006196000000000001,
1762844118674072602,1762844118.6740727,1762844118,673399269,1762844118.6733992,imu1_frame,-0.059631,0.11487,-0.300564,2.369,-0.046,-7.973,0.0001054,0.00015160000000000003,0.000629,
1762844118698945586,1762844118.6989458,1762844118,698288170,1762844118.6982882,imu1_frame,-0.027826,0.085646,-0.238729,2.725,0.644,-6.935,0.0001033,0.0001588,0.0006274999999999999,
1762844118724225611,1762844118.7242258,1762844118,723515112,1762844118.723515,imu1_frame,-0.10505,0.036006,-0.064299,3.055,1.317,-6.618,9.750000000000001e-05,0.0001482,0.000638,
1762844118749630595,1762844118.749631,1762844118,748881220,1762844118.748881,imu1_frame,-0.159844,-0.006024,0.209521,2.756,0.118,-7.131,0.0001,0.00016,0.0006313,
1762844118773240121,1762844118.77324,1762844118,772464497,1762844118.7724645,imu1_frame,0.089326,-0.156775,0.164985,2.253,-1.234,-7.758,0.00010120000000000001,0.00016350000000000002,0.0006247000000000001,
1762844118799458271,1762844118.7994585,1762844118,798801855,1762844118.798802,imu1_frame,0.05459,-0.102178,0.01142,2.48,-0.887,-8.854,0.0001056,0.00016109999999999999,0.0006209,
1762844118823653172,1762844118.8236532,1762844118,822938881,1762844118.822939,imu1_frame,0.001365,-0.031889,-0.008808,3.112,-0.496,-9.054,0.00010530000000000001,0.0001504,0.0006317,
1762844118850251905,1762844118.8502522,1762844118,849366281,1762844118.8493662,imu1_frame,-0.000614,0.063553,-0.057394,3.743,0.119,-9.138,0.0001065,0.00015160000000000003,0.0006224,
1762844118874677806,1762844118.874678,1762844118,873847515,1762844118.8738475,imu1_frame,0.026886,0.102332,-0.015957,4.03,-0.191,-9.211,0.00010530000000000001,0.0001504,0.0006277,
1762844118900480039,1762844118.90048,1762844118,899631123,1762844118.899631,imu1_frame,0.122418,0.090875,-0.176379,4.25,-0.822,-9.997,0.00010109999999999999,0.00016230000000000001,0.00063,
1762844118923623191,1762844118.9236233,1762844118,922936692,1762844118.9229367,imu1_frame,0.182028,0.091593,-0.051214,4.495,-0.23,-11.44,0.0001001,0.0001671,0.0006166,
1762844118949800258,1762844118.9498003,1762844118,949167550,1762844118.9491675,imu1_frame,0.168192,0.250429,-0.066044,4.157,-1.321,-11.935,0.0001001,0.0001659,0.0006206,
1762844118973903075,1762844118.9739032,1762844118,973308701,1762844118.9733088,imu1_frame,0.20033,0.396561,-0.308329,3.719,-2.676,-10.967,9.11e-05,0.0001613,0.0006335,
1762844118999254726,1762844118.999255,1762844118,998357268,1762844118.9983573,imu1_frame,0.27484,0.353858,-0.575254,3.628,-2.688,-9.473,8.56e-05,0.0001603,0.0006226000000000001,
1762844119023791793,1762844119.023792,1762844119,23233960,1762844119.023234,imu1_frame,0.304621,0.042212,-0.514343,3.742,-1.275,-9.377,8.12e-05,0.0001639,0.000625,
1762844119049079569,1762844119.0490797,1762844119,48544361,1762844119.0485444,imu1_frame,0.279284,-0.126185,-0.146534,3.026,-2.138,-10.118,8.15e-05,0.00018040000000000002,0.0006181,
1762844119073769261,1762844119.0737693,1762844119,72913387,1762844119.0729134,imu1_frame,0.320796,-0.239585,-0.122159,1.776,-4.537,-12.399,8.5e-05,0.0001887,0.0006169,
1762844119101792368,1762844119.1017923,1762844119,100953244,1762844119.1009533,imu1_frame,0.378461,-0.002256,-0.750491,0.972,-5.056,-12.024,8.400000000000001e-05,0.0001946,0.0006154,
1762844119124469937,1762844119.1244702,1762844119,123639187,1762844119.123639,imu1_frame,0.33068,0.061364,-1.036301,1.282,-2.337,-8.838,7.829999999999999e-05,0.0001864,0.0006232,
1762844119149503837,1762844119.149504,1762844119,148751671,1762844119.1487517,imu1_frame,0.294189,-0.159013,-0.814674,2.031,-0.581,-6.733,7.51e-05,0.0001936,0.0006136000000000001,
1762844119182296316,1762844119.1822965,1762844119,180112276,1762844119.1801124,imu1_frame,0.360016,-0.322112,-0.538706,2.381,-0.993,-8.578,7.290000000000001e-05,0.00019130000000000001,0.0006229,
1762844119198338431,1762844119.1983385,1762844119,197737390,1762844119.1977375,imu1_frame,0.339055,-0.376344,-0.553308,2.161,-2.127,-9.544,7.539999999999999e-05,0.0002101,0.0006134,
1762844119226875746,1762844119.2268758,1762844119,226116288,1762844119.2261162,imu1_frame,0.281465,-0.258916,-0.468653,2.547,-0.192,-9.816,8.11e-05,0.0002148,0.0006003,
1762844119249449606,1762844119.2494497,1762844119,248628274,1762844119.2486284,imu1_frame,0.248716,-0.208289,-0.300494,2.318,-0.872,-9.339,7.89e-05,0.0002183,0.0006028,
1762844119274748423,1762844119.2747486,1762844119,273667799,1762844119.2736678,imu1_frame,0.203901,-0.204546,-0.175672,2.45,-1.17,-8.75,7.99e-05,0.00021,0.0006177,
1762844119301576864,1762844119.301577,1762844119,300667823,1762844119.3006678,imu1_frame,0.164641,-0.127182,-0.327648,2.644,-1.299,-8.388,8.55e-05,0.00021470000000000001,0.0006059,
1762844119323097934,1762844119.323098,1762844119,322410059,1762844119.32241,imu1_frame,0.043839,-0.02767,-0.365455,3.23,0.445,-7.827,8.11e-05,0.00021360000000000001,0.0006083,
1762844119348430876,1762844119.3484309,1762844119,347771210,1762844119.3477712,imu1_frame,-0.072954,-0.034698,-0.148124,3.051,0.02,-6.909,7.910000000000001e-05,0.0002254,0.0006121,
1762844119374254068,1762844119.3742542,1762844119,373577193,1762844119.373577,imu1_frame,0.019042,-0.231658,-0.095319,2.741,-0.971,-6.784,8.26e-05,0.00023480000000000002,0.0005962,
1762844119398189636,1762844119.3981898,1762844119,397514219,1762844119.397514,imu1_frame,0.052787,-0.317613,-0.267098,2.976,-1.937,-8.094,8.47e-05,0.0002289,0.0006003,
1762844119423608577,1762844119.4236088,1762844119,422942870,1762844119.4229429,imu1_frame,0.146921,-0.351376,-0.086191,3.545,-1.022,-8.658,8.67e-05,0.0002158,0.0006099,
1762844119449134186,1762844119.449134,1762844119,448294853,1762844119.4482949,imu1_frame,-0.227592,-0.188412,0.065077,3.875,-1.165,-8.38,9.329999999999999e-05,0.0002145,0.000597,
1762844119474430753,1762844119.4744308,1762844119,473659045,1762844119.473659,imu1_frame,-0.405672,-0.175276,0.066664,3.799,-2.524,-8.63,9.43e-05,0.0002086,0.0006104000000000001,
1762844119498767946,1762844119.498768,1762844119,498245154,1762844119.4982452,imu1_frame,-0.113337,-0.383444,0.02797,3.522,-2.53,-9.722,9.790000000000001e-05,0.0002239,0.0006091,
1762844119524734221,1762844119.5247343,1762844119,523837180,1762844119.523837,imu1_frame,0.060809,-0.389721,0.157312,3.137,-2.943,-13.142,0.0001046,0.0002261,0.0005987,
1762844119548828205,1762844119.5488284,1762844119,548366497,1762844119.5483665,imu1_frame,-0.255166,0.060046,-0.053288,2.738,-4.489,-13.761,0.0001066,0.0002131,0.0005949999999999999,
1762844119575212063,1762844119.5752122,1762844119,574169272,1762844119.5741692,imu1_frame,-0.101282,0.280832,-0.430967,3.174,-3.121,-10.665,0.0001031,0.00020610000000000002,0.0006081999999999999,
1762844119601524421,1762844119.6015246,1762844119,599962631,1762844119.5999627,imu1_frame,-0.111169,0.138048,-0.30957,3.737,-0.827,-8.629,9.86e-05,0.00020260000000000002,0.0006081,
1762844119624128740,1762844119.6241288,1762844119,623096324,1762844119.6230962,imu1_frame,-0.030572,-0.257999,0.084557,3.686,-0.456,-9.941,9.64e-05,0.00020380000000000002,0.0006173,
1762844119648552183,1762844119.6485524,1762844119,647876350,1762844119.6478763,imu1_frame,-0.020276,-0.304173,0.205822,2.655,-2.188,-11.966,0.000101,0.0002132,0.0006054000000000001,
1762844119673302583,1762844119.6733027,1762844119,672705125,1762844119.6727052,imu1_frame,-0.023532,-0.106289,-5.3e-05,1.828,-3.772,-13.302,0.0001066,0.0002155,0.000603,
1762844119698534609,1762844119.6985347,1762844119,698058109,1762844119.6980581,imu1_frame,-0.016998,0.206846,-0.352499,1.976,-2.111,-11.612,0.00010520000000000001,0.0002001,0.0006044000000000001,
1762844119722753427,1762844119.7227538,1762844119,722302427,1762844119.7223024,imu1_frame,0.081282,0.173484,-0.322414,2.408,0.074,-9.062,9.87e-05,0.00020610000000000002,0.0006173999999999999,
1762844119749727992,1762844119.7497282,1762844119,748888785,1762844119.7488887,imu1_frame,0.104409,0.082896,-0.086832,1.87,-0.229,-8.311,9.87e-05,0.00020730000000000002,0.0006027000000000001,
1762844119774676851,1762844119.7746768,1762844119,773763727,1762844119.7737637,imu1_frame,0.032627,0.070616,-0.09614,1.257,-1.664,-8.579,9.53e-05,0.000205,0.0006131999999999999,
1762844119799611877,1762844119.799612,1762844119,798586878,1762844119.7985868,imu1_frame,0.066937,-0.064593,-0.345757,1.166,-1.553,-9.28,9.329999999999999e-05,0.0002145,0.0006102999999999999,
1762844119823880778,1762844119.823881,1762844119,823061070,1762844119.823061,imu1_frame,0.154673,-0.029446,-0.355218,1.485,-1.042,-9.794,9.68e-05,0.0002216,0.0005997,
1762844119849718095,1762844119.849718,1762844119,848917304,1762844119.8489172,imu1_frame,0.123112,0.078388,-0.359411,1.756,-0.709,-8.326,9.43e-05,0.0002074,0.0005944,
1762844119874128371,1762844119.8741286,1762844119,873281455,1762844119.8732815,imu1_frame,0.131614,0.123431,-0.397362,2.112,-0.973,-7.23,8.9e-05,0.0002241,0.00061,
1762844119898968688,1762844119.8989687,1762844119,898305647,1762844119.8983057,imu1_frame,0.152455,0.052543,-0.41847,2.586,0.094,-7.387,8.77e-05,0.0002146,0.000598,
1762844119924364172,1762844119.9243643,1762844119,923545881,1762844119.9235458,imu1_frame,0.159191,0.020322,-0.216277,2.716,-0.046,-8.332,8.23e-05,0.0002206,0.0006097,
1762844119949204447,1762844119.9492047,1762844119,948485739,1762844119.9484859,imu1_frame,0.181967,0.034251,-0.217685,2.625,-0.992,-8.619,7.81e-05,0.00023019999999999998,0.0006027000000000001,
1762844119974049556,1762844119.9740496,1762844119,973450182,1762844119.9734502,imu1_frame,0.186118,0.05205,-0.372687,2.625,-1.71,-8.494,8.03e-05,0.0002337,0.0005894,
1762844119998966540,1762844119.9989667,1762844119,998414332,1762844119.9984143,imu1_frame,0.120219,0.139947,-0.411445,3.312,-0.493,-9.201,7.93e-05,0.0002384,0.0005893000000000001,
1762844120024425191,1762844120.0244253,1762844120,23615941,1762844120.0236158,imu1_frame,0.20155,0.120102,-0.305375,3.478,0.021,-9.936,7.14e-05,0.0002291,0.000605,
1762844120048870925,1762844120.048871,1762844120,48310550,1762844120.0483105,imu1_frame,0.276693,0.1957,-0.386137,3.48,-0.541,-10.172,7.04e-05,0.0002362,0.0005915,
1762844120074095950,1762844120.074096,1762844120,73321742,1762844120.0733218,imu1_frame,0.273113,0.227567,-0.441173,3.657,-0.45,-10.029,6.49e-05,0.0002387,0.0006019,
1762844120099795559,1762844120.0997956,1762844120,98827559,1762844120.0988276,imu1_frame,0.334561,0.229825,-0.310818,4.012,-0.044,-11.186,6.17e-05,0.000247,0.0005989,
1762844120124394835,1762844120.124395,1762844120,123663793,1762844120.123664,imu1_frame,0.163451,0.361287,-0.181725,3.79,-1.669,-10.692,5.9800000000000003e-05,0.0002589,0.0005867,
1762844120148826652,1762844120.1488268,1762844120,148245569,1762844120.1482456,imu1_frame,0.290264,0.273395,-0.321644,3.482,-2.6,-9.308,5.17e-05,0.0002461,0.0005824000000000001,
1762844120174133511,1762844120.1741335,1762844120,173393345,1762844120.1733932,imu1_frame,0.331167,0.004864,-0.371135,3.39,-2.767,-9.826,4.74e-05,0.0002532,0.0005955,
1762844120199164536,1762844120.1991646,1762844120,198470703,1762844120.1984706,imu1_frame,0.049552,0.029527,-0.498518,2.859,-2.521,-10.657,4.52e-05,0.0002509,0.0005819999999999999,
1762844120223504646,1762844120.2235048,1762844120,222813146,1762844120.2228131,imu1_frame,0.097918,-0.147078,-0.445507,2.086,-2.999,-10.868,4.1e-05,0.000264,0.0005897,
1762844120248923629,1762844120.2489238,1762844120,248359130,1762844120.2483592,imu1_frame,0.223021,-0.083722,-0.745085,1.79,-3.319,-11.212,3.7699999999999995e-05,0.0002652,0.0005908,
1762844120273611363,1762844120.2736113,1762844120,272870822,1762844120.2728708,imu1_frame,-0.089437,0.123032,-0.961874,1.815,-1.029,-8.104,3.32e-05,0.000263,0.0005733,
1762844120298926972,1762844120.298927,1762844120,298265264,1762844120.2982652,imu1_frame,-0.005543,-0.12168,-0.514885,2.256,0.024,-7.176,2.9900000000000002e-05,0.00026419999999999997,0.0005811,
1762844120323339956,1762844120.3233402,1762844120,322725707,1762844120.3227258,imu1_frame,0.032307,-0.319436,-0.186549,2.256,-0.928,-8.537,2.98e-05,0.0002583,0.0005918,
1762844120347627649,1762844120.3476279,1762844120,347241274,1762844120.3472412,imu1_frame,0.042643,-0.294731,-0.188951,2.18,-3.133,-10.37,3.41e-05,0.0002511,0.0005880999999999999,
1762844120374260924,1762844120.3742611,1762844120,373440299,1762844120.3734403,imu1_frame,0.187793,-0.26872,-0.23432,2.046,-3.053,-10.019,3.4200000000000005e-05,0.0002582,0.0005934,
1762844120401344031,1762844120.401344,1762844120,399909990,1762844120.39991,imu1_frame,0.18441,-0.096751,-0.247035,2.262,-2.663,-9.864,3.44e-05,0.0002677,0.0005838999999999999,
1762844120423216642,1762844120.4232168,1762844120,422533476,1762844120.4225335,imu1_frame,0.123538,-0.082742,-0.309452,2.339,-2.103,-7.561,3.4500000000000005e-05,0.00027,0.0005786,
1762844120448869334,1762844120.4488695,1762844120,448120918,1762844120.4481208,imu1_frame,0.096887,-0.090973,-0.461474,2.579,-1.203,-6.967,3.56e-05,0.00027,0.0005773000000000001,
1762844120473405026,1762844120.4734051,1762844120,472728152,1762844120.4727283,imu1_frame,0.023881,-0.177611,-0.476642,2.893,-0.376,-6.813,3.32e-05,0.00026179999999999997,0.000592,
1762844120498076969,1762844120.4980772,1762844120,497411428,1762844120.4974115,imu1_frame,-0.090358,-0.154014,-0.150045,3.234,0.197,-7.584,3.2200000000000003e-05,0.0002677,0.0005745,
1762844120523814119,1762844120.5238142,1762844120,523117369,1762844120.5231173,imu1_frame,-0.006169,-0.141263,-0.005303,3.167,-1.538,-8.126,3.4200000000000005e-05,0.0002582,0.000588,
1762844120550104394,1762844120.5501044,1762844120,549303311,1762844120.5493033,imu1_frame,0.062072,-0.193151,-0.098196,3.144,-1.525,-8.153,3.56e-05,0.00027360000000000004,0.0005813000000000001,
1762844120574357503,1762844120.5743575,1762844120,573635504,1762844120.5736356,imu1_frame,-0.039703,-0.104388,-0.119375,3.398,-1.371,-8.216,3.6700000000000004e-05,0.0002688,0.0005774,
1762844120599250112,1762844120.5992503,1762844120,598416196,1762844120.598416,imu1_frame,-0.0401,-0.150907,-0.11808,3.441,-2.05,-8.483,3.7800000000000004e-05,0.00027,0.0005734000000000001,
1762844120623824055,1762844120.6238241,1762844120,623192347,1762844120.6231923,imu1_frame,0.150829,-0.210655,-0.1392,4.182,-1.938,-10.377,3.66e-05,0.0002641,0.0005920999999999999,
1762844120649699871,1762844120.6497,1762844120,648964413,1762844120.6489644,imu1_frame,0.137009,-0.008604,-0.084126,5.29,-0.405,-11.605,3.7800000000000004e-05,0.00027110000000000003,0.0005774,
1762844120674140647,1762844120.6741407,1762844120,673167064,1762844120.673167,imu1_frame,0.067001,0.24073,0.00864,4.903,-0.64,-10.547,3.44e-05,0.0002653,0.000588,
1762844120699175506,1762844120.6991756,1762844120,698478340,1762844120.6984782,imu1_frame,0.201854,0.045985,0.352112,4.418,-1.387,-10.272,3.35e-05,0.0002748,0.0005785,
1762844120724924698,1762844120.7249248,1762844120,724229657,1762844120.7242296,imu1_frame,0.331408,-0.140943,0.359148,3.638,-3.885,-11.19,4.13e-05,0.00027939999999999996,0.0005735,
1762844120749408849,1762844120.749409,1762844120,748612433,1762844120.7486124,imu1_frame,-0.095317,0.085584,0.061864,3.211,-4.097,-11.512,4.13e-05,0.00027939999999999996,0.0005695,
1762844120774198041,1762844120.774198,1762844120,773459958,1762844120.77346,imu1_frame,-0.290338,0.080358,-0.081259,2.932,-2.784,-11.926,4e-05,0.0002687,0.0005829,
1762844120799510733,1762844120.799511,1762844120,798726942,1762844120.798727,imu1_frame,0.280991,0.045908,0.021491,2.302,-2.472,-11.545,4.22e-05,0.0002687,0.000571,
1762844120823595176,1762844120.8235953,1762844120,822871635,1762844120.8228717,imu1_frame,0.886602,-0.172306,0.010004,1.731,-2.515,-9.241,3.7900000000000006e-05,0.0002747,0.00058,
1762844120849298034,1762844120.849298,1762844120,848557410,1762844120.8485575,imu1_frame,0.106749,-0.216945,-0.219985,1.9,-0.958,-8.573,4.1700000000000004e-05,0.0003006,0.0005719,
1762844120874454935,1762844120.8744552,1762844120,873710810,1762844120.8737109,imu1_frame,-0.07633,-0.148784,0.057304,2.414,-0.38,-10.078,4.48e-05,0.0002899,0.0005642,
1762844120899342502,1762844120.8993428,1762844120,898716169,1762844120.8987162,imu1_frame,0.30816,-0.080043,0.091587,1.526,-1.921,-9.397,4.3700000000000005e-05,0.0002888,0.0005642,
1762844120925535860,1762844120.925536,1762844120,924418361,1762844120.9244184,imu1_frame,0.241334,-0.023113,-0.013305,0.826,-2.999,-8.211,4.7000000000000004e-05,0.0002852,0.0005724,
1762844120949237345,1762844120.9492373,1762844120,948519929,1762844120.94852,imu1_frame,0.092189,-0.184548,-0.063691,0.759,-2.359,-7.927,4.61e-05,0.000297,0.0005628,
1762844120974371954,1762844120.974372,1762844120,973652579,1762844120.9736526,imu1_frame,0.169203,-0.319267,-0.13262,0.828,-2.851,-8.708,4.94e-05,0.0002969,0.0005684,
1762844120999429104,1762844120.9994292,1762844120,998673313,1762844120.9986732,imu1_frame,0.247868,-0.249498,-0.385651,1.153,-3.147,-9.332,4.9500000000000004e-05,0.0003017,0.0005656,
1762844121024099672,1762844121.0240996,1762844121,23405089,1762844121.023405,imu1_frame,0.059751,-0.039181,-0.56165,2.001,-1.486,-9.309,4.96e-05,0.0003076,0.0005496,
1762844121049340989,1762844121.049341,1762844121,48707198,1762844121.0487072,imu1_frame,0.171393,0.095342,-0.452909,2.507,-0.906,-8.909,4.5100000000000005e-05,0.0003018,0.0005521,
1762844121074067681,1762844121.0740678,1762844121,73269557,1762844121.0732696,imu1_frame,0.300581,-0.009931,-0.290186,2.514,-0.339,-7.87,3.9399999999999995e-05,0.00029709999999999996,0.0005678,
1762844121099410415,1762844121.0994105,1762844121,98582332,1762844121.0985823,imu1_frame,0.152353,-0.025103,-0.29379,2.488,-1.357,-8.771,4.5100000000000005e-05,0.0003018,0.0005561,
1762844121124847024,1762844121.1248472,1762844121,123845649,1762844121.1238456,imu1_frame,-0.135648,0.10839,-0.433949,2.523,-2.21,-9.926,3.85e-05,0.0003078,0.0005610000000000001,
1762844121149536341,1762844121.1495364,1762844121,148821550,1762844121.1488216,imu1_frame,-0.118228,0.244377,-0.518433,3.043,-1.057,-9.994,3.08e-05,0.0003091,0.0005592,
1762844121174130450,1762844121.1741304,1762844121,173314742,1762844121.1733148,imu1_frame,0.108746,0.121892,-0.596025,3.283,-1.035,-9.603,2.87e-05,0.0003174,0.0005524,
1762844121199624850,1762844121.199625,1762844121,198891601,1762844121.1988916,imu1_frame,0.152054,0.137607,-0.724887,3.497,-0.69,-9.786,2.0700000000000002e-05,0.0003034,0.0005494,
1762844121223995335,1762844121.2239954,1762844121,223260252,1762844121.2232602,imu1_frame,0.132392,0.220976,-0.510584,4.024,0.415,-9.875,9.8e-06,0.0003142,0.0005594,
1762844121249728526,1762844121.2497287,1762844121,248650111,1762844121.24865,imu1_frame,0.044967,0.275618,-0.326136,3.661,-0.5,-8.083,7.4e-06,0.0003037,0.0005514,
1762844121273758803,1762844121.273759,1762844121,273085303,1762844121.2730854,imu1_frame,0.024323,0.076769,-0.35565,3.512,-1.568,-7.464,9e-07,0.0003097,0.0005577,
1762844121298825787,1762844121.2988257,1762844121,298243829,1762844121.2982438,imu1_frame,0.159027,-0.112355,-0.506038,3.139,-2.984,-7.671,-2.4e-06,0.0003121,0.0005602000000000001,
1762844121323344562,1762844121.3233447,1762844121,322713604,1762844121.3227136,imu1_frame,0.091407,-0.265903,-0.44082,4.215,-0.823,-9.048,-3.4e-06,0.0003169,0.0005440000000000001,
1762844121348216130,1762844121.348216,1762844121,347586672,1762844121.3475866,imu1_frame,0.087141,-0.464443,-0.085035,3.811,-2.696,-10.804,9e-07,0.00031319999999999997,0.0005496,
1762844121374253238,1762844121.3742535,1762844121,373579155,1762844121.3735793,imu1_frame,0.106358,-0.393064,-0.314722,3.282,-4.198,-12.872,1.9e-06,0.0003049,0.0005578,
1762844121399852971,1762844121.3998532,1762844121,399148180,1762844121.3991482,imu1_frame,-0.158277,-0.066977,-0.434707,2.662,-2.939,-13.584,5.2e-06,0.0003025,0.0005513,
1762844121424207456,1762844121.4242074,1762844121,423463873,1762844121.4234638,imu1_frame,-0.259727,0.166687,-0.535587,1.845,-3.121,-11.112,-3.8e-06,0.00030030000000000004,0.0005616,
1762844121449127815,1762844121.4491282,1762844121,448497398,1762844121.4484973,imu1_frame,-0.019764,0.042814,-0.519858,1.993,-1.679,-8.2,-5.6e-06,0.0003181,0.0005572,
1762844121474230215,1762844121.4742303,1762844121,473398466,1762844121.4733984,imu1_frame,0.047859,-0.116222,-0.418152,1.711,-2.231,-7.326,-7e-06,0.0003063,0.0005453,
1762844121500131532,1762844121.5001316,1762844121,499301032,1762844121.499301,imu1_frame,-0.069286,-0.230052,-0.315952,1.897,-1.295,-8.451,-1.03e-05,0.00030520000000000005,0.0005478,
1762844121523315642,1762844121.523316,1762844121,522498059,1762844121.5224981,imu1_frame,0.027029,-0.268826,-0.064767,1.548,-2.185,-9.844,-1.03e-05,0.0003063,0.0005611,
1762844121548982625,1762844121.5489826,1762844121,547774085,1762844121.547774,imu1_frame,0.11624,-0.12451,-0.175243,1.361,-2.8,-10.069,-4.9e-06,0.0002968,0.0005535,
1762844121572946735,1762844121.5729468,1762844121,572358694,1762844121.5723586,imu1_frame,0.217987,-0.124222,-0.304802,1.533,-2.488,-8.389,-1.0500000000000001e-05,0.0002981,0.0005518999999999999,
1762844121599550468,1762844121.5995505,1762844121,598820218,1762844121.5988202,imu1_frame,0.100797,-0.162581,-0.366182,1.972,-1.313,-7.085,-1.12e-05,0.000317,0.0005516,
1762844121623453411,1762844121.6234536,1762844121,622718536,1762844121.6227186,imu1_frame,0.016451,-0.229055,-0.181128,2.358,-0.672,-7.223,-7.9e-06,0.0003181,0.0005425,
1762844121649438394,1762844121.6494386,1762844121,648648936,1762844121.648649,imu1_frame,-0.018993,-0.210289,-0.096263,2.303,-0.709,-7.938,-5.7999999999999995e-06,0.000311,0.0005386,
1762844121673911670,1762844121.6739116,1762844121,673338920,1762844121.673339,imu1_frame,-0.001453,-0.150186,-0.068322,2.39,-0.956,-8.617,-6e-06,0.0002992,0.0005587999999999999,
1762844121699586570,1762844121.6995866,1762844121,698809904,1762844121.6988099,imu1_frame,0.022854,-0.090049,0.0476,2.346,-1.018,-8.504,-2.7000000000000004e-06,0.0002991,0.0005523,
1762844121723974971,1762844121.723975,1762844121,723325971,1762844121.723326,imu1_frame,-0.013596,-0.096463,0.232586,2.596,-1.399,-8.367,-1.5e-06,0.0003015,0.0005616999999999999,
1762844121749135830,1762844121.749136,1762844121,748555455,1762844121.7485554,imu1_frame,-0.02071,-0.086434,0.190346,3.045,-2.068,-8.142,2e-06,0.00031319999999999997,0.0005484,
1762844121773925231,1762844121.7739253,1762844121,773239398,1762844121.7732394,imu1_frame,0.012459,-0.066022,0.235243,3.759,-2.009,-8.361,5.3e-06,0.0003096,0.0005446,
1762844121799134339,1762844121.7991345,1762844121,798446756,1762844121.7984467,imu1_frame,0.044947,-0.025582,0.296758,4.327,-2.11,-9.973,6.4000000000000006e-06,0.0003072,0.000546,
1762844121823992282,1762844121.8239925,1762844121,823309365,1762844121.8233094,imu1_frame,0.072158,0.049522,0.425045,3.844,-3.227,-10.048,7.6e-06,0.0003119,0.0005607,
1762844121849563432,1762844121.8495636,1762844121,848861057,1762844121.848861,imu1_frame,0.109383,0.006148,0.246073,3.541,-4.281,-10.717,1.1900000000000001e-05,0.0003059,0.0005516,
1762844121874539749,1762844121.8745399,1762844121,873685250,1762844121.8736854,imu1_frame,-0.062427,-0.02233,0.040271,3.842,-3.591,-11.666,1.1900000000000001e-05,0.0003059,0.0005556,
1762844121899513108,1762844121.8995132,1762844121,898703359,1762844121.8987033,imu1_frame,-0.10472,0.104885,-0.075594,4.06,-3.017,-11.735,9.8e-06,0.0003154,0.0005541000000000001,
1762844121924092801,1762844121.924093,1762844121,923448884,1762844121.9234488,imu1_frame,-0.067876,0.049443,-0.158924,3.984,-1.494,-11.031,1.1e-05,0.0003166,0.0005474,
1762844121949616742,1762844121.9496167,1762844121,948792951,1762844121.948793,imu1_frame,-0.18933,-0.183436,-0.151591,3.646,-1.427,-11.548,9.7e-06,0.0003072,0.0005475,
1762844121974233852,1762844121.9742339,1762844121,973471102,1762844121.9734712,imu1_frame,-0.253408,0.066052,-0.20667,3.366,-1.747,-12.796,7.5e-06,0.0003096,0.0005607,
1762844121999622544,1762844121.9996228,1762844121,998933419,1762844121.9989333,imu1_frame,-0.139431,0.409731,-0.295235,2.007,-2.858,-10.82,5.3e-06,0.0003084,0.0005486,
1762844122024380486,1762844122.0243804,1762844122,23563820,1762844122.0235639,imu1_frame,-0.092095,0.333089,-0.325206,1.096,-2.213,-8.779,-3.9e-06,0.000292,0.0005603,
1762844122048957970,1762844122.048958,1762844122,48404137,1762844122.0484042,imu1_frame,-0.003352,0.102022,-0.206538,0.595,-2.467,-7.944,-7e-06,0.00030270000000000004,0.0005560000000000001,
1762844122074340329,1762844122.0743403,1762844122,73466829,1762844122.0734668,imu1_frame,0.202298,-0.153344,-0.261734,0.619,-3.529,-7.588,-8.1e-06,0.0003075,0.0005479,
1762844122099421063,1762844122.0994213,1762844122,98642230,1762844122.098642,imu1_frame,0.218902,-0.305949,-0.324453,0.996,-2.487,-8.996,-8.1e-06,0.0003051,0.0005453,
1762844122123864047,1762844122.1238642,1762844122,123311131,1762844122.123311,imu1_frame,0.102914,-0.327127,-0.446462,1.292,-1.479,-10.747,-7.100000000000001e-06,0.0002992,0.0005574,
1762844122149718697,1762844122.149719,1762844122,149032697,1762844122.1490326,imu1_frame,0.103595,-0.170765,-0.499802,1.499,-1.843,-11.639,-7.100000000000001e-06,0.000298,0.0005467,
1762844122173847723,1762844122.173848,1762844122,173177890,1762844122.173178,imu1_frame,0.004667,0.018329,-0.582198,2.385,-0.288,-9.908,-1.15e-05,0.00030280000000000004,0.0005571,
1762844122198044124,1762844122.1980443,1762844122,197433125,1762844122.1974332,imu1_frame,-0.012424,0.020451,-0.464051,2.984,0.472,-8.655,-1.56e-05,0.0003171,0.0005514,
1762844122224233816,1762844122.2242339,1762844122,223494941,1762844122.223495,imu1_frame,-0.084509,-0.015041,-0.322528,2.953,0.657,-7.607,-1.67e-05,0.0003171,0.0005447,
1762844122248268258,1762844122.2482684,1762844122,247708300,1762844122.2477083,imu1_frame,-0.052446,-0.062859,-0.190332,2.523,-0.395,-8.05,-1.58e-05,0.00031,0.0005394999999999999,
1762844122274487867,1762844122.274488,1762844122,273631200,1762844122.273631,imu1_frame,0.024425,-0.041614,-0.235261,2.103,-0.964,-8.355,-2.2700000000000003e-05,0.0002959,0.0005553,
1762844122299352851,1762844122.299353,1762844122,298606643,1762844122.2986066,imu1_frame,-0.026492,0.008594,-0.199451,2.138,-0.796,-8.983,-1.7000000000000003e-05,0.0003065,0.0005435,
1762844122323369752,1762844122.3233697,1762844122,322744044,1762844122.3227441,imu1_frame,-0.132102,0.11775,-0.161232,2.263,-1.026,-8.77,-2.49e-05,0.000296,0.0005538,
1762844122348743402,1762844122.3487434,1762844122,347842861,1762844122.347843,imu1_frame,-0.084316,0.117173,-0.200468,2.543,-0.844,-8.448,-2.7e-05,0.0003043,0.0005510000000000001,
1762844122373991136,1762844122.3739913,1762844122,373328678,1762844122.3733287,imu1_frame,0.039258,0.064671,-0.212818,2.802,-0.583,-8.383,-2.92e-05,0.000302,0.0005402,
1762844122399435328,1762844122.3994353,1762844122,398646787,1762844122.3986468,imu1_frame,0.210249,-0.011924,-0.260193,2.868,-0.78,-8.883,-3.0200000000000002e-05,0.0003091,0.0005386999999999999,
1762844122423999020,1762844122.423999,1762844122,423354979,1762844122.4233549,imu1_frame,-0.035311,0.071581,-0.210551,3.445,-0.217,-10.685,-3.3799999999999995e-05,0.0002985,0.0005467,
1762844122448534546,1762844122.4485347,1762844122,448114546,1762844122.4481146,imu1_frame,-0.001632,0.304436,-0.252416,3.502,-1.039,-10.794,-3.7e-05,0.00030209999999999997,0.0005425,
1762844122474142155,1762844122.4741423,1762844122,473310155,1762844122.4733102,imu1_frame,0.111125,0.318186,-0.240636,3.565,-0.514,-10.432,-4.49e-05,0.000294,0.0005542,
1762844122499518888,1762844122.499519,1762844122,498627722,1762844122.4986277,imu1_frame,0.148351,0.277892,-0.04485,3.509,-0.293,-9.422,-4.8e-05,0.0003059,0.0005432,
1762844122524223414,1762844122.5242236,1762844122,523493206,1762844122.5234933,imu1_frame,0.205606,0.164777,-0.054835,3.614,-1.749,-9.385,-4.8e-05,0.0003071,0.0005338000000000001,
1762844122550125647,1762844122.5501256,1762844122,549291356,1762844122.5492914,imu1_frame,0.252364,0.019041,-0.171074,3.907,-1.488,-8.763,-4.89e-05,0.00032010000000000003,0.0005296,
1762844122573551132,1762844122.5735512,1762844122,572934966,1762844122.5729349,imu1_frame,0.119754,-0.063998,-0.034885,3.931,-1.59,-9.376,-5.69e-05,0.0003084,0.0005454,
1762844122599293157,1762844122.5992932,1762844122,598499741,1762844122.5984998,imu1_frame,0.004558,-0.143497,0.034352,3.35,-2.433,-9.956,-5.2400000000000007e-05,0.0003095,0.0005322,
1762844122623212350,1762844122.6232123,1762844122,622497267,1762844122.6224973,imu1_frame,0.051302,-0.263076,-0.075462,2.296,-4.157,-11.493,-5.0299999999999996e-05,0.0003036,0.0005444,
1762844122648567292,1762844122.6485674,1762844122,647507918,1762844122.647508,imu1_frame,-0.06261,-0.077695,-0.489527,1.483,-4.248,-11.131,-5.02e-05,0.0003106,0.0005364,
1762844122674106401,1762844122.6741064,1762844122,673350068,1762844122.67335,imu1_frame,0.030219,-0.098548,-0.648523,1.541,-2.315,-8.875,-4.9000000000000005e-05,0.0003106,0.0005351,
1762844122698783510,1762844122.6987836,1762844122,698234302,1762844122.6982343,imu1_frame,-0.005798,-0.186946,-0.486062,1.821,-1.154,-7.813,-5.58e-05,0.0003072,0.0005334,
1762844122724359577,1762844122.7243598,1762844122,723563827,1762844122.723564,imu1_frame,-0.037167,-0.310744,-0.293442,1.779,-1.604,-8.506,-5.7e-05,0.0003013,0.0005401000000000001,
1762844122749174311,1762844122.7491744,1762844122,748342561,1762844122.7483425,imu1_frame,-0.037456,-0.297816,-0.301271,1.42,-2.814,-9.913,-5.04e-05,0.0002965,0.0005405,
1762844122774084628,1762844122.7740848,1762844122,773332545,1762844122.7733326,imu1_frame,0.15499,-0.23845,-0.247545,1.459,-2.584,-10.607,-5.49e-05,0.0002954,0.0005390000000000001,
1762844122800565486,1762844122.8005657,1762844122,799652362,1762844122.7996523,imu1_frame,0.180376,-0.080844,-0.348293,1.696,-2.798,-9.403,-5.58e-05,0.0003072,0.0005428,
1762844122823446013,1762844122.823446,1762844122,822656305,1762844122.8226564,imu1_frame,0.132571,-0.097157,-0.398229,2.089,-1.919,-7.374,-5.57e-05,0.0003084,0.0005281,
1762844122849410705,1762844122.849411,1762844122,848673580,1762844122.8486736,imu1_frame,0.07131,-0.176081,-0.443643,2.264,-1.31,-6.724,-5.91e-05,0.0003049,0.0005346,
1762844122873965022,1762844122.8739653,1762844122,873206606,1762844122.8732066,imu1_frame,0.022168,-0.286375,-0.411949,2.465,-0.367,-7.078,-5.92e-05,0.00030020000000000003,0.0005453,
1762844122898732423,1762844122.8987327,1762844122,898130757,1762844122.8981307,imu1_frame,-0.058058,-0.282792,-0.227876,2.459,-1.311,-8.242,-5.37e-05,0.0003001,0.0005403,
1762844122924520573,1762844122.9245205,1762844122,923636407,1762844122.9236364,imu1_frame,-0.006211,-0.25248,-0.272273,2.404,-1.971,-8.678,-5.4800000000000004e-05,0.0003013,0.0005456,
1762844122948792807,1762844122.948793,1762844122,947883516,1762844122.9478836,imu1_frame,0.030033,-0.182915,-0.302504,2.651,-2.146,-9.105,-5.57e-05,0.0003131,0.0005427,
1762844122972941708,1762844122.9729419,1762844122,972360625,1762844122.9723606,imu1_frame,-0.008339,-0.153544,-0.26085,3.124,-1.362,-9.433,-5.45e-05,0.0003131,0.0005334,
1762844122998671067,1762844122.9986713,1762844122,997917651,1762844122.9979177,imu1_frame,-0.090935,-0.151524,-0.13244,3.312,-1.646,-10.1,-5.3400000000000004e-05,0.00031430000000000005,0.0005348000000000001,
