bag_t,ros_t,gyro_x,gyro_y,gyro_z,acc_x,acc_y,acc_z,mag_x,mag_y,mag_z,raw
1761940419.4138799,1761940419.413464,-0.017615363794283488,-0.006209410239697786,-0.006330972422099191,-1.083,0.865,9.196,1.072e-05,-9.990000000000001e-06,1.558e-05,"$VNYMR,+031.992,+006.200,+006.254,-00.0999,+00.1072,-00.1558,+00.865,-01.083,-09.196,-00.355773,-01.009286,+00.362738*62"
1761940419.4190326,1761940419.4188786,-0.01226854763079886,-0.006558127024246253,-0.004015880435791312,-0.977,0.877,10.159,1.062e-05,-9.51e-06,1.6000000000000003e-05,"$VNYMR,+032.260,+004.934,+005.829,-00.0951,+00.1062,-00.1600,+00.877,-00.977,-10.159,-00.375753,-00.702936,+00.230093*67"
1761940419.444037,1761940419.443862,-0.010143591813203243,-0.008839062917092603,-0.0030458438908253843,-0.664,0.318,8.9,1.061e-05,-8.53e-06,1.541e-05,"$VNYMR,+032.457,+004.088,+005.146,-00.0853,+00.1061,-00.1541,+00.318,-00.664,-08.900,-00.506441,-00.581185,+00.174514*6D"
1761940419.4689682,1761940419.468868,-0.014188427261285143,-0.008724935837304694,-0.0043584013014952,-0.415,0.039,8.764,1.002e-05,-7.77e-06,1.581e-05,"$VNYMR,+032.677,+003.032,+004.443,-00.0777,+00.1002,-00.1581,+00.039,-00.415,-08.764,-00.499902,-00.812937,+00.249718*6A"
1761940419.5018573,1761940419.501543,-0.01641131350321016,-0.011660073493676077,-0.003611086222376268,-0.606,-0.092,9.612,1.021e-05,-6.79e-06,1.566e-05,"$VNYMR,+032.938,+001.730,+003.605,-00.0679,+00.1021,-00.1566,-00.092,-00.606,-09.612,-00.668073,-00.940299,+00.206900*69"
1761940419.5190213,1761940419.5188494,-0.016658452125292558,-0.010701346682263071,-0.004858176332803776,0.122,-0.686,10.881,1.039e-05,-5.330000000000001e-06,1.6150000000000003e-05,"$VNYMR,+033.191,+000.369,+002.634,-00.0533,+00.1039,-00.1615,-00.686,+00.122,-10.881,-00.613142,-00.954459,+00.278353*67"
1761940419.5439963,1761940419.5438845,-0.0159678253402784,-0.007883844217476106,-0.006416092129718955,-0.315,-0.842,11.213,8.720000000000001e-06,-4.2900000000000004e-06,1.7080000000000002e-05,"$VNYMR,+033.616,-000.987,+001.939,-00.0429,+00.0872,-00.1708,-00.842,-00.315,-11.213,-00.451711,-00.914889,+00.367615*6C"
1761940419.568966,1761940419.5688558,-0.014923175969789716,-0.008546022135682755,-0.0048712313956086935,-0.495,-0.946,11.108,8.61e-06,-3.13e-06,1.736e-05,"$VNYMR,+034.031,-002.261,+001.246,-00.0313,+00.0861,-00.1736,-00.946,-00.495,-11.108,-00.489651,-00.855035,+00.279101*6F"
1761940419.5939748,1761940419.593876,-0.01450293559249452,-0.009898111253910241,-0.0037126120249647778,0.038,-1.136,11.857,8.500000000000002e-06,-1.7700000000000002e-06,1.7530000000000003e-05,"$VNYMR,+034.345,-003.480,+000.458,-00.0177,+00.0850,-00.1753,-01.136,+00.038,-11.857,-00.567120,-00.830957,+00.212717*64"
1761940419.6189945,1761940419.6188924,-0.013742321104475392,-0.011189724713556125,-0.004612957572898573,0.061,-1.538,13.056,7.51e-06,-6.2e-07,1.8350000000000002e-05,"$VNYMR,+034.709,-004.646,-000.460,-00.0062,+00.0751,-00.1835,-01.538,+00.061,-13.056,-00.641124,-00.787377,+00.264303*6B"
1761940419.6440113,1761940419.6439097,-0.011584396017309604,-0.01204374922314199,-0.004336043633777153,-1.121,-1.796,14.302,7.7e-06,1.6e-07,1.898e-05,"$VNYMR,+035.085,-005.674,-001.403,+00.0016,+00.0770,-00.1898,-01.796,-01.121,-14.302,-00.690056,-00.663737,+00.248437*60"
1761940419.6690378,1761940419.6689274,-0.008170811253089013,-0.003584103432140436,-0.0017285042780051042,0.827,-1.654,14.997,7.59e-06,1.32e-06,1.9810000000000002e-05,"$VNYMR,+035.126,-006.447,-001.935,+00.0132,+00.0759,-00.1981,-01.654,+00.827,-14.997,-00.205354,-00.468153,+00.099036*6A"
1761940419.6940532,1761940419.6939409,-0.005843676494942374,-0.0013680414275907152,-0.0016697564953829752,0.174,-1.627,15.46,7.190000000000001e-06,1.7000000000000002e-06,2.0790000000000003e-05,"$VNYMR,+035.305,-007.032,-002.077,+00.0170,+00.0719,-00.2079,-01.627,+00.174,-15.460,-00.078383,-00.334818,+00.095670*60"
1761940419.7191138,1761940419.7190015,-0.0005715255168580631,-0.0026643498229244633,-0.0017601994572213212,-0.306,-1.642,15.548,7.190000000000001e-06,1.99e-06,2.044e-05,"$VNYMR,+035.476,-007.261,-002.280,+00.0199,+00.0719,-00.2044,-01.642,-00.306,-15.548,-00.152656,-00.032746,+00.100852*6B"
1761940419.7442176,1761940419.7440739,0.0019444189597693229,-0.0031385034208137636,-0.0005090078230516262,-0.464,-1.464,14.602,7.090000000000001e-06,1.6000000000000001e-06,2.112e-05,"$VNYMR,+035.557,-007.145,-002.552,+00.0160,+00.0709,-00.2112,-01.464,-00.464,-14.602,-00.179823,+00.111407,+00.029164*6B"
1761940419.7692282,1761940419.7690916,0.004870760156710655,-0.0014748381245202483,0.0003054675256840476,-0.211,-1.16,14.619,7.000000000000001e-06,1.3100000000000002e-06,2.014e-05,"$VNYMR,+035.559,-006.885,-002.728,+00.0131,+00.0700,-00.2014,-01.160,-00.211,-14.619,-00.084502,+00.279074,-00.017502*64"
1761940419.7941496,1761940419.79401,0.007364259699157394,-0.005028555374383463,0.0011454770413763984,0.05,-1.188,13.517,6.82e-06,6.3e-07,1.9280000000000002e-05,"$VNYMR,+035.493,-006.336,-003.038,+00.0063,+00.0682,-00.1928,-01.188,+00.050,-13.517,-00.288115,+00.421941,-00.065631*6C"
1761940419.819185,1761940419.819054,0.007594224281400166,-0.006291109101983641,0.0006129072734228487,0.947,-0.962,13.368,6.92e-06,-3.4e-07,1.977e-05,"$VNYMR,+035.344,-005.725,-003.498,-00.0034,+00.0692,-00.1977,-00.962,+00.947,-13.368,-00.360454,+00.435117,-00.035117*66"
1761940419.8442614,1761940419.8441138,0.010096188670719078,-0.0049403464339876696,-0.001186527185383305,0.82,-0.891,13.16,6.740000000000001e-06,-1.3100000000000002e-06,1.76e-05,"$VNYMR,+035.369,-004.972,-003.916,-00.0131,+00.0674,-00.1760,-00.891,+00.820,-13.160,-00.283061,+00.578469,+00.067983*62"
1761940419.86942,1761940419.869213,0.013889557080173634,-0.001712604328519436,-1.2618730491919003e-05,1.184,-0.845,12.241,6.9400000000000005e-06,-2.1800000000000003e-06,1.7080000000000002e-05,"$VNYMR,+035.312,-003.950,-004.111,-00.0218,+00.0694,-00.1708,-00.845,+01.184,-12.241,-00.098125,+00.795813,+00.000723*6B"
1761940419.8945599,1761940419.8940885,0.015037355409455186,0.0042734037669230765,0.0005394987250839672,0.896,-0.824,11.497,7.15e-06,-3.24e-06,1.6470000000000003e-05,"$VNYMR,+035.217,-002.768,-003.945,-00.0324,+00.0715,-00.1647,-00.824,+00.896,-11.497,+00.244848,+00.861577,-00.030911*6D"
1761940419.9192464,1761940419.919077,0.014544980574175066,0.009623570962571534,0.00211771270119984,0.532,-0.82,10.518,7.36e-06,-4.4e-06,1.541e-05,"$VNYMR,+035.044,-001.565,-003.279,-00.0440,+00.0736,-00.1541,-00.820,+00.532,-10.518,+00.551390,+00.833366,-00.121336*62"
1761940419.9442685,1761940419.9441068,0.01573353234149068,0.01054791478772025,0.003812863737199332,0.574,-0.594,11.251,7.5600000000000005e-06,-5.56e-06,1.525e-05,"$VNYMR,+034.739,-000.422,-002.430,-00.0556,+00.0756,-00.1525,-00.594,+00.574,-11.251,+00.604351,+00.901465,-00.218461*68"
1761940419.9693336,1761940419.9691494,0.01629212496859147,0.010431867845755147,0.003649675452137862,1.091,-0.369,10.567,7.860000000000001e-06,-6.43e-06,1.54e-05,"$VNYMR,+034.357,+000.927,-001.600,-00.0643,+00.0786,-00.1540,-00.369,+01.091,-10.567,+00.597702,+00.933470,-00.209111*65"
1761940419.9943097,1761940419.994131,0.019025642189772467,0.009309306977457434,0.0024257982207618787,0.455,-0.351,9.608,8.46e-06,-7.59e-06,1.5120000000000001e-05,"$VNYMR,+034.110,+002.420,-000.752,-00.0759,+00.0846,-00.1512,-00.351,+00.455,-09.608,+00.533384,+01.090089,-00.138988*6F"
1761940420.0193791,1761940420.0191946,0.017583633708482233,0.007971477199218742,0.0028490056577854636,0.582,-0.089,9.353,9.06e-06,-8.65e-06,1.44e-05,"$VNYMR,+033.857,+003.911,-000.119,-00.0865,+00.0906,-00.1440,-00.089,+00.582,-09.353,+00.456732,+01.007468,-00.163236*6E"
1761940420.0444794,1761940420.0442538,0.015917839110501285,0.011821516449485554,0.0034557344656562525,-0.325,-0.011,9.768,9.260000000000001e-06,-9.23e-06,1.4540000000000001e-05,"$VNYMR,+033.632,+005.255,+000.716,-00.0923,+00.0926,-00.1454,-00.011,-00.325,-09.768,+00.677323,+00.912025,-00.197999*64"
1761940420.0704348,1761940420.069667,0.01760564231034988,0.01335799960318624,0.005269899503349239,-0.082,0.386,9.925,9.85e-06,-1.0290000000000001e-05,1.4810000000000002e-05,"$VNYMR,+033.274,+006.631,+001.729,-00.1029,+00.0985,-00.1481,+00.386,-00.082,-09.925,+00.765357,+01.008729,-00.301943*68"
1761940420.0952673,1761940420.0943885,0.019203316707625488,0.014242148495661529,0.003730920528818199,0.417,0.703,9.282,1.0340000000000001e-05,-1.0870000000000001e-05,1.5060000000000001e-05,"$VNYMR,+032.949,+008.163,+002.870,-00.1087,+00.1034,-00.1506,+00.703,+00.417,-09.282,+00.816015,+01.100269,-00.213766*66"
1761940420.1205702,1761940420.1195602,0.018269670277563644,0.012545199770532482,0.002490689562351028,-0.177,1.061,9.371,1.045e-05,-1.1940000000000001e-05,1.5110000000000003e-05,"$VNYMR,+032.799,+009.706,+003.888,-00.1194,+00.1045,-00.1511,+01.061,-00.177,-09.371,+00.718787,+01.046775,-00.142706*69"
1761940420.1448588,1761940420.1442199,0.01828049131892601,0.017826426460727164,0.003546648666392637,-1.236,1.095,8.2,1.2110000000000001e-05,-1.2600000000000001e-05,1.571e-05,"$VNYMR,+032.686,+011.294,+005.172,-00.1260,+00.1211,-00.1571,+01.095,-01.236,-08.200,+01.021379,+01.047395,-00.203208*63"
1761940420.1698415,1761940420.1692863,0.014475376843605529,0.015468032855677305,0.005869280475069131,-0.975,1.775,7.372,1.231e-05,-1.3180000000000001e-05,1.618e-05,"$VNYMR,+032.400,+012.673,+006.461,-00.1318,+00.1231,-00.1618,+01.775,-00.975,-07.372,+00.886253,+00.829378,-00.336285*67"
1761940420.195527,1761940420.1946645,0.015928782324911288,0.011649549158286551,0.004176206380879512,-0.751,2.302,7.44,1.2030000000000002e-05,-1.396e-05,1.643e-05,"$VNYMR,+032.135,+013.936,+007.523,-00.1396,+00.1203,-00.1643,+02.302,-00.751,-07.440,+00.667470,+00.912652,-00.239279*62"
1761940420.2202177,1761940420.2194278,0.015827413601955456,0.009067264716790861,0.004199628699441276,-0.936,2.26,6.11,1.213e-05,-1.464e-05,1.679e-05,"$VNYMR,+031.973,+015.304,+008.260,-00.1464,+00.1213,-00.1679,+02.260,-00.936,-06.110,+00.519516,+00.906844,-00.240621*60"
1761940420.246098,1761940420.244341,0.012383076136314728,0.00955703901148551,0.005166680731386293,-1.481,2.527,6.355,1.2720000000000002e-05,-1.5120000000000001e-05,1.6819999999999998e-05,"$VNYMR,+031.762,+016.413,+008.977,-00.1512,+00.1272,-00.1682,+02.527,-01.481,-06.355,+00.547578,+00.709498,-00.296029*6F"
1761940420.2695692,1761940420.2692966,0.009882717449907652,0.0076997468879757445,0.007428260922828026,-1.178,2.781,5.075,1.2720000000000002e-05,-1.561e-05,1.75e-05,"$VNYMR,+031.366,+017.422,+009.566,-00.1561,+00.1272,-00.1750,+02.781,-01.178,-05.075,+00.441163,+00.566238,-00.425608*61"
1761940420.2954004,1761940420.294415,0.005958571519601161,0.006873560379959188,0.006889460329444857,-0.482,3.024,5.266,1.263e-05,-1.6000000000000003e-05,1.7630000000000002e-05,"$VNYMR,+030.844,+018.126,+009.982,-00.1600,+00.1263,-00.1763,+03.024,-00.482,-05.266,+00.393826,+00.341401,-00.394737*60"
1761940420.3204231,1761940420.31952,0.005375893348822854,0.001770112927372649,0.004705041144233794,-0.263,3.465,5.352,1.3120000000000001e-05,-1.628e-05,1.7760000000000003e-05,"$VNYMR,+030.446,+018.645,+010.205,-00.1628,+00.1312,-00.1776,+03.465,-00.263,-05.352,+00.101420,+00.308016,-00.269579*60"
1761940420.3456757,1761940420.3444586,0.004846360453767774,-0.003457165635642888,0.00031541590242041524,0.137,3.613,4.569,1.273e-05,-1.658e-05,1.777e-05,"$VNYMR,+030.335,+019.113,+010.042,-00.1658,+00.1273,-00.1777,+03.613,+00.137,-04.569,-00.198081,+00.277676,-00.018072*65"
1761940420.3707047,1761940420.3701272,0.0007928332660109441,-0.004913991962282554,-0.0022935895299233083,-0.414,3.337,4.166,1.2920000000000002e-05,-1.6380000000000002e-05,1.787e-05,"$VNYMR,+030.502,+019.293,+009.713,-00.1638,+00.1292,-00.1787,+03.337,-00.414,-04.166,-00.281551,+00.045426,+00.131413*63"
1761940420.394452,1761940420.3941925,-0.00450952936142539,-0.0026229506130671584,-0.0029677927666761977,-0.734,3.172,4.057,1.273e-05,-1.6380000000000002e-05,1.732e-05,"$VNYMR,+030.703,+019.067,+009.462,-00.1638,+00.1273,-00.1732,+03.172,-00.734,-04.057,-00.150284,-00.258377,+00.170042*62"
1761940420.4194465,1761940420.41925,-0.013480242463995923,0.000993528676697772,-0.0024242274244350836,-1.338,2.578,4.178,1.3900000000000002e-05,-1.598e-05,1.742e-05,"$VNYMR,+030.808,+018.249,+009.494,-00.1598,+00.1390,-00.1742,+02.578,-01.338,-04.178,+00.056925,-00.772361,+00.138898*60"
1761940420.4444005,1761940420.4442165,-0.01588834304614258,-6.206390820091837e-05,-0.001963547768371181,-1.04,2.396,6.479,1.2720000000000002e-05,-1.561e-05,1.739e-05,"$VNYMR,+030.742,+016.933,+009.557,-00.1561,+00.1272,-00.1739,+02.396,-01.040,-06.479,-00.003556,-00.910335,+00.112503*6E"
1761940420.4694974,1761940420.4692912,-0.014003143107893424,-0.006072454253293791,-0.003488599015471306,-0.569,2.361,7.299,1.301e-05,-1.4920000000000001e-05,1.7150000000000004e-05,"$VNYMR,+030.752,+015.686,+009.272,-00.1492,+00.1301,-00.1715,+02.361,-00.569,-07.299,-00.347926,-00.802321,+00.199882*6D"
1761940420.4950557,1761940420.494349,-0.012944321663878544,-0.0059105924184638375,-0.005796517698553488,-0.904,2.037,7.014,1.2620000000000001e-05,-1.4540000000000001e-05,1.657e-05,"$VNYMR,+031.003,+014.570,+008.764,-00.1454,+00.1262,-00.1657,+02.037,-00.904,-07.014,-00.338652,-00.741655,+00.332116*63"
1761940420.5194113,1761940420.5191576,-0.015148777228902502,-0.003381959398174452,-0.004726700680251043,-1.953,1.802,7.387,1.2220000000000002e-05,-1.4060000000000001e-05,1.699e-05,"$VNYMR,+031.292,+013.345,+008.480,-00.1406,+00.1222,-00.1699,+01.802,-01.953,-07.387,-00.193772,-00.867961,+00.270820*69"
1761940420.544285,1761940420.5441372,-0.014497909044248776,-0.004506405222064319,-0.000773477564606327,-1.114,1.503,8.132,1.2220000000000002e-05,-1.3280000000000002e-05,1.6400000000000002e-05,"$VNYMR,+031.284,+012.104,+008.185,-00.1328,+00.1222,-00.1640,+01.503,-01.114,-08.132,-00.258198,-00.830669,+00.044317*6A"
1761940420.5692837,1761940420.5691583,-0.012152727581636517,-0.013215859988903823,-0.0027640604830909,-0.737,1.145,8.96,1.182e-05,-1.27e-05,1.582e-05,"$VNYMR,+031.341,+011.004,+007.385,-00.1270,+00.1182,-00.1582,+01.145,-00.737,-08.960,-00.757213,-00.696300,+00.158369*6D"
1761940420.594324,1761940420.5941343,-0.01144079032645551,-0.008676049164956333,-0.007589494439127263,-0.464,1.325,9.26,1.094e-05,-1.213e-05,1.5790000000000003e-05,"$VNYMR,+031.614,+010.062,+006.459,-00.1213,+00.1094,-00.1579,+01.325,-00.464,-09.260,-00.497101,-00.655509,+00.434846*64"
1761940420.6194136,1761940420.6192417,-0.010165111722880335,0.0015923162364719866,-0.006008610109255839,-1.864,1.064,9.762,1.142e-05,-1.134e-05,1.609e-05,"$VNYMR,+032.040,+009.118,+006.438,-00.1134,+00.1142,-00.1609,+01.064,-01.864,-09.762,+00.091233,-00.582418,+00.344268*6F"
1761940420.6443295,1761940420.6441603,-0.009908618136007246,-0.005218517010170526,0.001580570170606065,-1.16,0.719,9.179,1.1020000000000001e-05,-1.057e-05,1.6270000000000002e-05,"$VNYMR,+032.062,+008.352,+006.382,-00.1057,+00.1102,-00.1627,+00.719,-01.160,-09.179,-00.298999,-00.567722,-00.090560*61"
1761940420.669452,1761940420.6692643,-0.007145988822902983,-0.01762656880808129,-0.0006121567818444912,0.878,1.398,10.702,1.043e-05,-1.039e-05,1.6150000000000003e-05,"$VNYMR,+031.884,+007.624,+005.342,-00.1039,+00.1043,-00.1615,+01.398,+00.878,-10.702,-01.009928,-00.409435,+00.035074*66"
1761940420.694536,1761940420.6943235,0.0007160911388007535,-0.016296261398918693,-0.003638941677238097,0.089,1.456,10.459,1.0330000000000001e-05,-9.51e-06,1.523e-05,"$VNYMR,+032.106,+007.407,+003.840,-00.0951,+00.1033,-00.1523,+01.456,+00.089,-10.459,-00.933707,+00.041029,+00.208496*62"
1761940420.7202704,1761940420.719383,-0.005117392633309974,-0.008792183373384034,-0.0048892781000743155,-0.73,0.626,8.027,9.74e-06,-8.740000000000001e-06,1.5190000000000002e-05,"$VNYMR,+032.500,+007.276,+003.028,-00.0874,+00.0974,-00.1519,+00.626,-00.730,-08.027,-00.503755,-00.293205,+00.280135*62"
1761940420.745728,1761940420.7443624,-0.008619064164878718,-0.011133437845179308,0.0001608844504488373,-0.506,0.879,11.425,9.44e-06,-7.97e-06,1.5260000000000003e-05,"$VNYMR,+032.622,+006.541,+002.197,-00.0797,+00.0944,-00.1526,+00.879,-00.506,-11.425,-00.637899,-00.493836,-00.009218*69"
1761940420.7697387,1761940420.7692547,-0.0028219530543795515,-0.014692164189995745,-0.0015046483481443115,1.095,1.045,10.921,9.34e-06,-7.190000000000001e-06,1.4890000000000001e-05,"$VNYMR,+032.633,+006.158,+001.156,-00.0719,+00.0934,-00.1489,+01.045,+01.095,-10.921,-00.841799,-00.161686,+00.086210*6C"
1761940420.7946644,1761940420.794354,-0.0035474340645560345,-0.01589193842440169,-0.007101831992827527,0.557,0.795,10.276,8.840000000000002e-06,-6.22e-06,1.485e-05,"$VNYMR,+033.072,+005.896,-000.058,-00.0622,+00.0884,-00.1485,+00.795,+00.557,-10.276,-00.910541,-00.203253,+00.406905*63"
1761940420.8194966,1761940420.819223,-0.010599384547361562,-0.018191846046217215,-0.004475861960154418,-1.076,-0.046,9.719,7.850000000000001e-06,-4.68e-06,1.488e-05,"$VNYMR,+033.598,+005.350,-001.378,-00.0468,+00.0785,-00.1488,-00.046,-01.076,-09.719,-01.042316,-00.607300,+00.256448*6D"
1761940420.8444622,1761940420.8441913,-0.014978031668179898,-0.014325627593784418,0.0005834112090641445,1.07,0.266,12.928,7.55e-06,-3.72e-06,1.55e-05,"$VNYMR,+033.642,+004.207,-002.663,-00.0372,+00.0755,-00.1550,+00.266,+01.070,-12.928,-00.820798,-00.858178,-00.033427*6A"
1761940420.8693612,1761940420.869182,-0.00959376073894747,-0.00848901968231262,-0.005138703103476825,2.334,0.231,14.576,7.530000000000001e-06,-2.26e-06,1.621e-05,"$VNYMR,+033.891,+003.191,-003.475,-00.0226,+00.0753,-00.1621,+00.231,+02.334,-14.576,-00.486385,-00.549682,+00.294426*6A"
1761940420.8946164,1761940420.894325,-0.007651279094647861,-0.008789094140608005,-0.003505389082875491,0.705,0.092,13.874,7.32e-06,-8.1e-07,1.659e-05,"$VNYMR,+034.499,+002.562,-004.078,-00.0081,+00.0732,-00.1659,+00.092,+00.705,-13.874,-00.503578,-00.438386,+00.200844*65"
1761940420.9194405,1761940420.9192429,-0.009042289055194823,0.0013457710263352677,-0.004782621029484941,0.761,-0.091,15.721,8.29e-06,2.7e-07,1.6550000000000002e-05,"$VNYMR,+034.930,+001.822,-004.273,+00.0027,+00.0829,-00.1655,-00.091,+00.761,-15.721,+00.077107,-00.518085,+00.274024*67"
1761940420.944491,1761940420.9443033,-0.00781200646546402,0.003423358608031758,-0.00509103816160486,0.274,-0.148,16.401,7.2100000000000004e-06,8.4e-07,1.6850000000000003e-05,"$VNYMR,+035.410,+001.162,-004.002,+00.0084,+00.0721,-00.1685,-00.148,+00.274,-16.401,+00.196144,-00.447595,+00.291695*64"
1761940420.969462,1761940420.9692724,-0.003973992533743449,0.0032369923505038032,-0.005498310742557736,0.319,0.126,16.899,7.2999999999999996e-06,1.33e-06,1.65e-05,"$VNYMR,+035.883,+000.727,-003.795,+00.0133,+00.0730,-00.1650,+00.126,+00.319,-16.899,+00.185466,-00.227693,+00.315030*60"
1761940420.9946558,1761940420.9944134,0.0027687728720712846,0.0021429152555986378,-0.006911852903747943,-0.44,0.295,15.559,7.69e-06,8.4e-07,1.785e-05,"$VNYMR,+036.425,+000.779,-003.532,+00.0084,+00.0769,-00.1785,+00.295,-00.440,-15.559,+00.122780,+00.158639,+00.396020*6A"
1761940421.0196319,1761940421.0194056,0.005832279494926851,0.0007679797774625449,-0.005202058555324219,-0.764,0.519,14.407,7.8e-06,1.7e-07,1.688e-05,"$VNYMR,+036.872,+001.194,-003.421,+00.0017,+00.0780,-00.1688,+00.519,-00.764,-14.407,+00.044002,+00.334165,+00.298056*6B"
1761940421.045393,1761940421.0444784,0.006298683830937296,0.0011370645543817858,-0.0022371455819138113,-1.317,0.318,13.055,7.22e-06,-7.100000000000001e-07,1.6470000000000003e-05,"$VNYMR,+037.148,+001.743,-003.307,-00.0071,+00.0722,-00.1647,+00.318,-01.317,-13.055,+00.065149,+00.360888,+00.128179*68"
1761940421.0714946,1761940421.070372,0.003226939254012316,0.0015778474569729537,0.0012221493554165094,-0.002,0.484,12.495,7.240000000000001e-06,-1.8800000000000002e-06,1.63e-05,"$VNYMR,+037.094,+002.137,-003.208,-00.0188,+00.0724,-00.1630,+00.484,-00.002,-12.495,+00.090404,+00.184890,-00.070024*68"
1761940421.1003716,1761940421.0998194,0.003335795439459202,0.00583854522694151,-0.0002598271657443958,1.05,0.377,13.035,7.340000000000001e-06,-2.46e-06,1.611e-05,"$VNYMR,+037.015,+002.371,-002.915,-00.0246,+00.0734,-00.1611,+00.377,+01.050,-13.035,+00.334524,+00.191127,+00.014887*6A"
1761940421.1196234,1761940421.1192944,0.002749469530544227,0.01213281337487126,-0.002892272369942403,0.077,0.239,12.732,7.84e-06,-3.910000000000001e-06,1.529e-05,"$VNYMR,+037.196,+002.630,-002.137,-00.0391,+00.0784,-00.1529,+00.239,+00.077,-12.732,+00.695159,+00.157533,+00.165715*66"
1761940421.144429,1761940421.144256,0.0034879706969405877,0.014820969488792928,-0.0003286629514430522,-0.671,-0.005,12.478,8.53e-06,-4.67e-06,1.5e-05,"$VNYMR,+037.307,+002.850,-000.905,-00.0467,+00.0853,-00.1500,-00.005,-00.671,-12.478,+00.849179,+00.199846,+00.018831*6D"
1761940421.1694286,1761940421.1692877,0.00530637688471592,0.012609672233101154,0.004326007990578185,-0.463,-0.395,11.157,8.15e-06,-5.55e-06,1.514e-05,"$VNYMR,+037.110,+003.252,+000.154,-00.0555,+00.0815,-00.1514,-00.395,-00.463,-11.157,+00.722481,+00.304033,-00.247862*69"
1761940421.1944733,1761940421.1943007,0.003328098537457907,0.009032026519193095,0.002852356689949293,0.006,-0.102,10.621,8.65e-06,-6.710000000000001e-06,1.531e-05,"$VNYMR,+036.807,+003.620,+000.964,-00.0671,+00.0865,-00.1531,-00.102,+00.006,-10.621,+00.517497,+00.190686,-00.163428*61"
1761940421.2195811,1761940421.219375,0.011159286171401344,0.009989706133054903,0.004868002536492504,-0.243,-0.012,12.007,9.05e-06,-7.580000000000001e-06,1.5129999999999999e-05,"$VNYMR,+036.488,+004.184,+001.742,-00.0758,+00.0905,-00.1513,-00.012,-00.243,-12.007,+00.572368,+00.639380,-00.278916*6D"
1761940421.2445068,1761940421.2443137,0.019818091483347972,0.008127806340319874,0.006183509553598191,-0.138,0.021,9.647,9.93e-06,-8.540000000000001e-06,1.518e-05,"$VNYMR,+036.081,+005.610,+002.476,-00.0854,+00.0993,-00.1518,+00.021,-00.138,-09.647,+00.465689,+01.135493,-00.354289*6A"
1761940421.2696028,1761940421.2694194,0.020025698397872698,0.005889264495004466,0.006453145469738794,0.274,0.33,8.569,9.750000000000002e-06,-9.71e-06,1.49e-05,"$VNYMR,+035.622,+007.266,+002.960,-00.0971,+00.0975,-00.1490,+00.330,+00.274,-08.569,+00.337430,+01.147388,-00.369738*6D"
1761940421.2946835,1761940421.2944713,0.017535654607344905,0.007330365405083665,0.005378650969041005,0.13,0.886,7.674,9.950000000000001e-06,-1.049e-05,1.5260000000000003e-05,"$VNYMR,+035.226,+008.844,+003.441,-00.1049,+00.0995,-00.1526,+00.886,+00.130,-07.674,+00.419999,+01.004719,-00.308174*65"
1761940421.319815,1761940421.3195043,0.018367216729457608,0.009148684326396397,0.006877766623456494,-0.549,1.274,7.668,1.035e-05,-1.1650000000000002e-05,1.5320000000000002e-05,"$VNYMR,+034.831,+010.323,+004.033,-00.1165,+00.1035,-00.1532,+01.274,-00.549,-07.668,+00.524181,+01.052364,-00.394067*67"
1761940421.3446271,1761940421.344438,0.016281269020644064,0.01472515091285844,0.008099357473512366,-0.77,1.662,6.508,1.1230000000000001e-05,-1.2410000000000001e-05,1.5470000000000003e-05,"$VNYMR,+034.322,+011.799,+004.928,-00.1241,+00.1123,-00.1547,+01.662,-00.770,-06.508,+00.843689,+00.932848,-00.464059*6A"
1761940421.3696423,1761940421.3694625,0.013396169953927357,0.014322206748450509,0.009847810864867766,-0.477,1.813,5.348,1.134e-05,-1.3100000000000002e-05,1.639e-05,"$VNYMR,+033.664,+013.093,+006.021,-00.1310,+00.1134,-00.1639,+01.813,-00.477,-05.348,+00.820602,+00.767544,-00.564238*6E"
1761940421.394799,1761940421.3945463,0.009020367719789773,0.00962191289978214,0.008369028296238009,0.082,2.265,5.394,1.1930000000000001e-05,-1.367e-05,1.631e-05,"$VNYMR,+032.991,+014.049,+006.796,-00.1367,+00.1193,-00.1631,+02.265,+00.082,-05.394,+00.551295,+00.516829,-00.479510*66"
1761940421.420576,1761940421.4196272,0.007988651239058366,0.004735287700170856,0.0045040490275741266,-0.102,2.485,6.615,1.1740000000000001e-05,-1.426e-05,1.633e-05,"$VNYMR,+032.543,+014.738,+007.195,-00.1426,+00.1174,-00.1633,+02.485,-00.102,-06.615,+00.271312,+00.457716,-00.258063*69"
1761940421.4451857,1761940421.4445515,0.007415659645628627,0.004158543648849329,0.004446051736530355,-0.537,2.409,5.223,1.233e-05,-1.464e-05,1.624e-05,"$VNYMR,+032.258,+015.470,+007.480,-00.1464,+00.1233,-00.1624,+02.409,-00.537,-05.223,+00.238267,+00.424886,-00.254740*69"
1761940421.4700446,1761940421.4697256,0.0020997009033192583,0.0021144314822060905,0.004870463450737816,-0.99,2.547,5.327,1.2230000000000001e-05,-1.503e-05,1.7140000000000002e-05,"$VNYMR,+031.931,+015.854,+007.602,-00.1503,+00.1223,-00.1714,+02.547,-00.990,-05.327,+00.121148,+00.120304,-00.279057*6B"
1761940421.495333,1761940421.494537,0.0009088802079760471,-0.001297983911415663,0.004480574349134803,0.11,2.827,5.671,1.281e-05,-1.482e-05,1.659e-05,"$VNYMR,+031.505,+015.993,+007.569,-00.1482,+00.1281,-00.1659,+02.827,+00.110,-05.671,-00.074369,+00.052075,-00.256718*61"
1761940421.5202656,1761940421.5196579,-4.707152992628707e-05,-0.00827373331907912,-3.69660735572399e-05,0.341,3.023,6.015,1.213e-05,-1.5129999999999999e-05,1.637e-05,"$VNYMR,+031.348,+016.043,+007.035,-00.1513,+00.1213,-00.1637,+03.023,+00.341,-06.015,-00.474050,-00.002697,+00.002118*64"
1761940421.5451298,1761940421.5445216,-9.515535081873086e-05,-0.010283200700070272,-0.002187787670667412,-0.805,2.94,4.908,1.301e-05,-1.5110000000000003e-05,1.66e-05,"$VNYMR,+031.513,+016.073,+006.312,-00.1511,+00.1301,-00.1660,+02.940,-00.805,-04.908,-00.589184,-00.005452,+00.125351*61"
1761940421.570284,1761940421.5696082,-0.004702475510233362,-0.009485689951663982,-0.00047382198533142054,-0.888,2.908,4.402,1.1840000000000002e-05,-1.523e-05,1.637e-05,"$VNYMR,+031.582,+015.866,+005.471,-00.1523,+00.1184,-00.1637,+02.908,-00.888,-04.402,-00.543490,-00.269432,+00.027148*64"
1761940421.5952308,1761940421.5945485,-0.010892669674866691,-0.004916330703480227,0.0017549634694653384,-0.359,2.569,4.547,1.1350000000000001e-05,-1.4840000000000002e-05,1.58e-05,"$VNYMR,+031.443,+015.164,+004.912,-00.1484,+00.1135,-00.1580,+02.569,-00.359,-04.547,-00.281685,-00.624104,-00.100552*60"
1761940421.620537,1761940421.6196914,-0.017971480774860413,-0.006619300814528654,1.8500490071139893e-06,0.604,2.184,6.905,1.115e-05,-1.426e-05,1.566e-05,"$VNYMR,+031.252,+013.849,+004.397,-00.1426,+00.1115,-00.1566,+02.184,+00.604,-06.905,-00.379258,-01.029690,-00.000106*61"
1761940421.645115,1761940421.6445308,-0.015049450541171506,-0.008931041768672704,-0.0038272976101133257,0.753,2.052,7.924,1.0850000000000001e-05,-1.359e-05,1.607e-05,"$VNYMR,+031.340,+012.508,+003.744,-00.1359,+00.1085,-00.1607,+02.052,+00.753,-07.924,-00.511711,-00.862270,+00.219288*6A"
1761940421.6703985,1761940421.6696687,-0.014538278509847406,-0.008974116494611925,-0.00610341639422417,-0.566,1.76,7.925,1.075e-05,-1.32e-05,1.528e-05,"$VNYMR,+031.741,+011.272,+003.055,-00.1320,+00.1075,-00.1528,+01.760,-00.566,-07.925,-00.514179,-00.832982,+00.349700*67"
1761940421.6952438,1761940421.6945562,-0.01556835438108194,-0.007763294326040857,-0.005101963922722344,-0.764,1.719,7.82,1.153e-05,-1.2410000000000001e-05,1.514e-05,"$VNYMR,+032.127,+010.019,+002.516,-00.1241,+00.1153,-00.1514,+01.719,-00.764,-07.820,-00.444804,-00.892001,+00.292321*66"
1761940421.719724,1761940421.719459,-0.011346978879160814,-0.01389402512305874,-0.003993138795637827,0.86,1.523,8.005,9.96e-06,-1.1940000000000001e-05,1.5210000000000002e-05,"$VNYMR,+032.336,+008.935,+001.750,-00.1194,+00.0996,-00.1521,+01.523,+00.860,-08.005,-00.796069,-00.650134,+00.228790*65"
1761940421.7445962,1761940421.7444222,-0.011489031226980632,-0.013296389480590842,-0.0060988785381689845,0.846,0.994,8.892,1.045e-05,-1.1350000000000001e-05,1.4530000000000001e-05,"$VNYMR,+032.752,+008.004,+000.572,-00.1135,+00.1045,-00.1453,+00.994,+00.846,-08.892,-00.761827,-00.658273,+00.349440*6B"
1761940421.769518,1761940421.7693841,-0.013221479949095243,-0.0020614083795305028,-0.006323205706927816,0.005,0.802,8.414,8.98e-06,-1.05e-05,1.4810000000000002e-05,"$VNYMR,+033.280,+007.004,+000.147,-00.1050,+00.0898,-00.1481,+00.802,+00.005,-08.414,-00.118110,-00.757535,+00.362293*65"
1761940421.7946024,1761940421.7944283,-0.013427830226558534,-0.005639333346118878,-0.0033503514854208347,0.087,0.728,9.364,9.06e-06,-9.72e-06,1.544e-05,"$VNYMR,+033.674,+005.850,-000.063,-00.0972,+00.0906,-00.1544,+00.728,+00.087,-09.364,-00.323110,-00.769358,+00.191961*68"
1761940421.8195875,1761940421.8194344,-0.01218241563221294,-0.00742723117856935,-0.0047920981673232705,1.106,0.121,8.402,8.08e-06,-8.76e-06,1.45e-05,"$VNYMR,+033.994,+004.893,-000.614,-00.0876,+00.0808,-00.1450,+00.121,+01.106,-08.402,-00.425549,-00.698001,+00.274567*64"
1761940421.8445635,1761940421.8444333,-0.023362418861835457,-0.0029977600699329404,-0.007964460975625724,0.041,-0.376,8.921,8.37e-06,-7.98e-06,1.4920000000000001e-05,"$VNYMR,+034.611,+003.360,-001.027,-00.0798,+00.0837,-00.1492,-00.376,+00.041,-08.921,-00.171759,-01.338568,+00.456330*63"
1761940421.8696518,1761940421.869494,-0.022811854749293845,0.0037280407355524082,-0.005585367765647214,-0.191,-0.657,10.436,8.160000000000001e-06,-6.92e-06,1.542e-05,"$VNYMR,+035.186,+001.434,-000.832,-00.0692,+00.0816,-00.1542,-00.657,-00.191,-10.436,+00.213601,-01.307023,+00.320018*6C"
1761940421.8948097,1761940421.8945873,-0.02094852378657218,-0.002467214883911704,-0.003886883150776412,1.04,-0.851,11.243,8.15e-06,-5.1700000000000005e-06,1.5240000000000001e-05,"$VNYMR,+035.559,-000.384,-000.792,-00.0517,+00.0815,-00.1524,-00.851,+01.040,-11.243,-00.141361,-01.200262,+00.222702*61"
1761940421.9197779,1761940421.9195385,-0.017173010095365527,-0.004908773427819092,-0.006683860543559924,0.744,-0.946,11.797,7.94e-06,-3.910000000000001e-06,1.606e-05,"$VNYMR,+036.047,-001.897,-001.252,-00.0391,+00.0794,-00.1606,-00.946,+00.744,-11.797,-00.281252,-00.983941,+00.382957*6C"
1761940421.9450362,1761940421.9445748,-0.015744876981628644,-0.0017106321064646822,-0.005584407834558616,0.136,-1.273,10.938,7.73e-06,-2.8400000000000003e-06,1.613e-05,"$VNYMR,+036.567,-003.199,-001.493,-00.0284,+00.0773,-00.1613,-01.273,+00.136,-10.938,-00.098012,-00.902115,+00.319963*61"
1761940421.9698248,1761940421.9695446,-0.01607287670795594,-0.0035954829788634383,-0.003462349263521311,0.447,-1.486,11.129,7.430000000000001e-06,-1.79e-06,1.773e-05,"$VNYMR,+036.973,-004.508,-001.713,-00.0179,+00.0743,-00.1773,-01.486,+00.447,-11.129,-00.206006,-00.920908,+00.198378*64"
1761940421.9950924,1761940421.9946463,-0.012427075886757505,-0.010998925319728105,-0.005159891400596036,0.674,-1.584,11.865,8.09e-06,-3.2e-07,1.8010000000000002e-05,"$VNYMR,+037.379,-005.652,-002.424,-00.0032,+00.0809,-00.1801,-01.584,+00.674,-11.865,-00.630192,-00.712019,+00.295640*62"
1761940422.0210412,1761940422.0199358,-0.013674462703157853,-0.006607659468417852,-0.004415944806933453,-0.035,-1.982,11.358,6.72e-06,6.3e-07,1.895e-05,"$VNYMR,+037.839,-006.667,-003.218,+00.0063,+00.0672,-00.1895,-01.982,-00.035,-11.358,-00.378591,-00.783489,+00.253015*60"
1761940422.0442462,1761940422.0436826,-0.014977909495132257,-0.0023191586034650253,0.0018742392705466307,0.039,-2.809,13.18,6.320000000000001e-06,1.8800000000000002e-06,1.966e-05,"$VNYMR,+038.141,-007.921,-003.630,+00.0188,+00.0632,-00.1966,-02.809,+00.039,-13.180,-00.132878,-00.858171,-00.107386*68"
1761940422.0706654,1761940422.0698211,-0.012715875518085009,-0.0009178337470387781,-0.001285400087508784,1.302,-2.416,14.639,6.5900000000000004e-06,3.05e-06,2.139e-05,"$VNYMR,+038.253,-009.060,-003.821,+00.0305,+00.0659,-00.2139,-02.416,+01.302,-14.639,-00.052588,-00.728566,+00.073648*69"
1761940422.0955508,1761940422.0947165,-0.009756617411451061,0.002130663044249638,-0.0018527542674545805,-0.002,-2.814,15.554,6.58e-06,3.82e-06,2.312e-05,"$VNYMR,+038.477,-009.923,-003.759,+00.0382,+00.0658,-00.2312,-02.814,-00.002,-15.554,+00.122078,-00.559013,+00.106155*60"
1761940422.1202974,1761940422.119685,-0.004723838340277773,0.004585573356934782,-0.0008961393044364885,0.044,-2.878,17.269,6.58e-06,4.11e-06,2.2780000000000002e-05,"$VNYMR,+038.607,-010.532,-003.451,+00.0411,+00.0658,-00.2278,-02.878,+00.044,-17.269,+00.262734,-00.270656,+00.051345*6C"
1761940422.1449165,1761940422.1446574,0.0033987145589935977,0.0019542277101655308,0.0006249674985541295,-0.584,-2.622,16.721,6.58e-06,3.82e-06,2.29e-05,"$VNYMR,+038.619,-010.503,-003.185,+00.0382,+00.0658,-00.2290,-02.622,-00.584,-16.721,+00.111969,+00.194732,-00.035808*6B"
1761940422.1707509,1761940422.1698897,0.007929851096558676,0.0015158533619421151,0.0015477754339610914,-0.193,-2.143,15.911,6.78e-06,3.7300000000000003e-06,2.2570000000000002e-05,"$VNYMR,+038.467,-009.984,-003.028,+00.0373,+00.0678,-00.2257,-02.143,-00.193,-15.911,+00.086852,+00.454347,-00.088681*66"
1761940422.1952758,1761940422.1941833,0.013185718152721881,0.0005967280712568612,0.002436566902246684,-0.037,-1.879,14.765,6.700000000000001e-06,2.37e-06,2.175e-05,"$VNYMR,+038.256,-009.071,-002.889,+00.0237,+00.0670,-00.2175,-01.879,-00.037,-14.765,+00.034190,+00.755486,-00.139605*68"
1761940422.2203426,1761940422.21966,0.01493111721788629,-0.0008624544498729979,0.002816717066623569,0.553,-1.632,13.419,7.1e-06,1.12e-06,1.982e-05,"$VNYMR,+037.958,-007.882,-002.901,+00.0112,+00.0710,-00.1982,-01.632,+00.553,-13.419,-00.049415,+00.855490,-00.161386*69"
1761940422.2449772,1761940422.2446694,0.015296030657893265,-0.0013145121794320492,0.002047079226371629,0.022,-1.486,12.969,6.82e-06,1.4e-07,1.919e-05,"$VNYMR,+037.741,-006.652,-003.003,+00.0014,+00.0682,-00.1919,-01.486,+00.022,-12.969,-00.075316,+00.876398,-00.117289*67"
1761940422.2712843,1761940422.27043,0.018274068507278668,0.0017259037374196327,0.004662158404512293,0.396,-1.36,13.296,7.230000000000001e-06,-1.21e-06,1.793e-05,"$VNYMR,+037.356,-005.302,-002.933,-00.0121,+00.0723,-00.1793,-01.360,+00.396,-13.296,+00.098887,+01.047027,-00.267122*6F"
1761940422.3003435,1761940422.2995152,0.021461231707638036,0.005854672069229939,0.0050305974096082956,0.791,-1.335,12.033,7.340000000000001e-06,-3.05e-06,1.724e-05,"$VNYMR,+036.868,-003.665,-002.499,-00.0305,+00.0734,-00.1724,-01.335,+00.791,-12.033,+00.335448,+01.229638,-00.288232*6C"
1761940422.3199308,1761940422.319577,0.01736518829930262,0.009061819289524639,0.004030523748215545,1.307,-0.959,10.698,7.55e-06,-3.92e-06,1.639e-05,"$VNYMR,+036.392,-002.071,-001.839,-00.0392,+00.0755,-00.1639,-00.959,+01.307,-10.698,+00.519204,+00.994952,-00.230932*6E"
1761940422.3438296,1761940422.3435998,0.018535745722030178,0.010437522712531608,0.0048993661031508425,-0.175,-0.96,11.119,8.050000000000001e-06,-5.1700000000000005e-06,1.601e-05,"$VNYMR,+036.038,-000.638,-000.965,-00.0517,+00.0805,-00.1601,-00.960,-00.175,-11.119,+00.598026,+01.062020,-00.280713*62"
1761940422.3699849,1761940422.3696184,0.021648802242349864,0.008656344397701316,0.007596021970529721,-0.054,-0.682,10.288,8.45e-06,-6.519999999999999e-06,1.5190000000000002e-05,"$VNYMR,+035.467,+001.047,-000.218,-00.0652,+00.0845,-00.1519,-00.682,-00.054,-10.288,+00.495972,+01.240385,-00.435220*67"
1761940422.3949103,1761940422.394657,0.020801078371363697,0.010457995424657503,0.00787040518223575,-0.301,-0.437,9.408,8.76e-06,-7.98e-06,1.525e-05,"$VNYMR,+034.836,+002.789,+000.571,-00.0798,+00.0876,-00.1525,-00.437,-00.301,-09.408,+00.599199,+01.191814,-00.450941*64"
1761940422.4199197,1761940422.419625,0.018765099439034753,0.009366745763140569,0.010737352824731716,-0.443,-0.003,8.969,9.06e-06,-8.85e-06,1.4960000000000002e-05,"$VNYMR,+034.096,+004.414,+001.327,-00.0885,+00.0906,-00.1496,-00.003,-00.443,-08.969,+00.536675,+01.075161,-00.615205*6E"
1761940422.4439328,1761940422.4437006,0.019630695481561343,0.006990724332645568,0.010950789138958103,0.244,0.5,9.458,9.750000000000002e-06,-1.001e-05,1.568e-05,"$VNYMR,+033.228,+006.007,+001.900,-00.1001,+00.0975,-00.1568,+00.500,+00.244,-09.458,+00.400539,+01.124756,-00.627434*60"
1761940422.4702215,1761940422.4698613,0.023572783396578336,0.006589368417856952,0.010155442598824286,0.586,0.625,9.595,9.86e-06,-1.117e-05,1.4630000000000002e-05,"$VNYMR,+032.413,+007.826,+002.355,-00.1117,+00.0986,-00.1463,+00.625,+00.586,-09.595,+00.377543,+01.350621,-00.581864*6D"
1761940422.4947357,1761940422.493891,0.026297870677472197,0.006121236205887033,0.00857539602699382,0.358,1.056,9.635,1.094e-05,-1.2220000000000002e-05,1.5129999999999999e-05,"$VNYMR,+031.750,+009.906,+002.752,-00.1222,+00.1094,-00.1513,+01.056,+00.358,-09.635,+00.350721,+01.506757,-00.491334*6B"
1761940422.5209255,1761940422.5198743,0.029050970492860578,0.007044934259212511,0.006350764455816806,0.4,1.095,7.758,1.1540000000000001e-05,-1.3569999999999999e-05,1.53e-05,"$VNYMR,+031.253,+012.284,+003.223,-00.1357,+00.1154,-00.1530,+01.095,+00.400,-07.758,+00.403645,+01.664498,-00.363872*6C"
1761940422.5443826,1761940422.5438347,0.02324724458449635,0.006502276488182435,0.005418741181959315,-0.333,1.394,7.303,1.096e-05,-1.4460000000000002e-05,1.544e-05,"$VNYMR,+030.920,+014.416,+003.683,-00.1446,+00.1096,-00.1544,+01.394,-00.333,-07.303,+00.372553,+01.331969,-00.310471*6D"
1761940422.5702906,1761940422.5697162,0.023878181109092303,0.007839024162284892,0.006759258767246079,-0.433,1.909,7.571,1.145e-05,-1.533e-05,1.604e-05,"$VNYMR,+030.527,+016.359,+004.173,-00.1533,+00.1145,-00.1604,+01.909,-00.433,-07.571,+00.449143,+01.368119,-00.387277*61"
1761940422.5945258,1761940422.5938687,0.022404337822245688,0.007453812543077224,0.005630554339981346,-0.04,2.557,6.392,1.127e-05,-1.6400000000000002e-05,1.686e-05,"$VNYMR,+030.146,+018.291,+004.695,-00.1640,+00.1127,-00.1686,+02.557,-00.040,-06.392,+00.427072,+01.283674,-00.322607*6E"
1761940422.620336,1761940422.6197333,0.02138806750539443,0.006359264209274019,0.003942035555139433,-0.004,2.851,5.841,1.156e-05,-1.718e-05,1.7780000000000003e-05,"$VNYMR,+029.893,+020.094,+005.178,-00.1718,+00.1156,-00.1778,+02.851,-00.004,-05.841,+00.364359,+01.225446,-00.225862*67"
1761940422.6444724,1761940422.643851,0.017481392320900402,0.005358178256915112,0.003428140810182222,-0.589,2.994,5.752,1.206e-05,-1.7460000000000002e-05,1.724e-05,"$VNYMR,+029.763,+021.665,+005.593,-00.1746,+00.1206,-00.1724,+02.994,-00.589,-05.752,+00.307001,+01.001610,-00.196418*6A"
1761940422.6695557,1761940422.6689029,0.015615059391865306,0.005132158118781846,0.0047260898150128456,-0.905,3.237,5.438,1.216e-05,-1.795e-05,1.771e-05,"$VNYMR,+029.562,+023.043,+005.940,-00.1795,+00.1216,-00.1771,+03.237,-00.905,-05.438,+00.294051,+00.894677,-00.270785*66"
1761940422.6941075,1761940422.6938496,0.012024934573805492,0.005076866088078666,0.004207692120585489,-0.126,3.674,4.818,1.177e-05,-1.8540000000000002e-05,1.762e-05,"$VNYMR,+029.258,+024.179,+006.260,-00.1854,+00.1177,-00.1762,+03.674,-00.126,-04.818,+00.290883,+00.688978,-00.241083*6F"
1761940422.7189205,1761940422.7187269,0.008635417899969905,0.0023137131761988027,0.002989888635006446,-0.087,3.907,4.363,1.2460000000000001e-05,-1.872e-05,1.785e-05,"$VNYMR,+029.057,+025.001,+006.470,-00.1872,+00.1246,-00.1785,+03.907,-00.087,-04.363,+00.132566,+00.494773,-00.171308*67"
1761940422.7439547,1761940422.7437308,0.0036687868074472005,-0.002814011806282978,0.0002883458457219832,0.688,4.299,3.337,1.236e-05,-1.911e-05,1.787e-05,"$VNYMR,+028.970,+025.521,+006.375,-00.1911,+00.1236,-00.1787,+04.299,+00.688,-03.337,-00.161231,+00.210206,-00.016521*69"
1761940422.769921,1761940422.7696955,-0.0016066279363383402,-0.0047130696587929675,-0.0033532487319791453,0.168,4.42,3.553,1.256e-05,-1.8920000000000002e-05,1.7860000000000002e-05,"$VNYMR,+029.167,+025.552,+006.097,-00.1892,+00.1256,-00.1786,+04.420,+00.168,-03.553,-00.270039,-00.092053,+00.192127*65"
1761940422.794077,1761940422.7938814,-0.007614487554015821,-0.0015139684063499614,-0.0042512904453003075,-0.317,3.871,3.621,1.217e-05,-1.8920000000000002e-05,1.775e-05,"$VNYMR,+029.473,+025.104,+006.006,-00.1892,+00.1217,-00.1775,+03.871,-00.317,-03.621,-00.086744,-00.436278,+00.243581*66"
1761940422.8191102,1761940422.8188887,-0.014602838238878677,0.00012315043202071988,-0.0034655432160524604,-0.598,3.454,5.544,1.2260000000000001e-05,-1.853e-05,1.762e-05,"$VNYMR,+029.688,+024.060,+006.068,-00.1853,+00.1226,-00.1762,+03.454,-00.598,-05.544,+00.007056,-00.836681,+00.198561*61"
1761940422.8446498,1761940422.8439388,-0.01475560690830574,-0.001432793142839705,-0.003925769086510845,-0.261,3.243,6.437,1.2260000000000001e-05,-1.8140000000000003e-05,1.75e-05,"$VNYMR,+029.865,+022.822,+006.112,-00.1814,+00.1226,-00.1750,+03.243,-00.261,-06.437,-00.082093,-00.845434,+00.224930*6B"
1761940422.8704224,1761940422.8698263,-0.015353766149549237,-0.004781102593035706,-0.006982067499555675,0.293,3.38,7.186,1.196e-05,-1.756e-05,1.78e-05,"$VNYMR,+030.202,+021.519,+005.935,-00.1756,+00.1196,-00.1780,+03.380,+00.293,-07.186,-00.273937,-00.879706,+00.400043*6C"
1761940422.894286,1761940422.8939342,-0.016014984136667288,-0.0038571252870299084,-0.010294213727650355,-0.848,3.017,7.066,1.185e-05,-1.679e-05,1.743e-05,"$VNYMR,+030.885,+020.189,+005.787,-00.1679,+00.1185,-00.1743,+03.017,-00.848,-07.066,-00.220997,-00.917591,+00.589815*69"
1761940422.9192405,1761940422.9188058,-0.019869404163356606,-0.0013091714719209466,-0.00901527135837395,-1.872,2.247,7.253,1.175e-05,-1.611e-05,1.718e-05,"$VNYMR,+031.585,+018.628,+005.846,-00.1611,+00.1175,-00.1718,+02.247,-01.872,-07.253,-00.075010,-01.138433,+00.516537*67"
1761940422.9440491,1761940422.9437416,-0.019085210277143033,-0.005091387227455259,-0.004002650840061196,-1.111,2.19,9.041,1.2920000000000002e-05,-1.54e-05,1.628e-05,"$VNYMR,+031.899,+016.919,+005.661,-00.1540,+00.1292,-00.1628,+02.190,-01.111,-09.041,-00.291715,-01.093502,+00.229335*6C"
1761940422.9691288,1761940422.9688494,-0.016110767806016738,-0.009517489850635318,-0.006819891505460363,0.552,2.497,8.558,1.1350000000000001e-05,-1.455e-05,1.645e-05,"$VNYMR,+032.197,+015.505,+005.109,-00.1455,+00.1135,-00.1645,+02.497,+00.552,-08.558,-00.545312,-00.923079,+00.390751*6B"
1761940422.9939902,1761940422.9938123,-0.014728816104287626,-0.0072640603468004,-0.009055797903605257,-0.505,2.02,8.453,1.125e-05,-1.3780000000000002e-05,1.586e-05,"$VNYMR,+032.839,+014.223,+004.535,-00.1378,+00.1125,-00.1586,+02.020,-00.505,-08.453,-00.416200,-00.843899,+00.518859*68"
1761940423.020076,1761940423.0198107,-0.016200582449324364,-0.002608900712588604,-0.006057514234896719,-1.48,1.409,9.015,1.056e-05,-1.281e-05,1.5260000000000003e-05,"$VNYMR,+033.527,+012.864,+004.203,-00.1281,+00.1056,-00.1526,+01.409,-01.480,-09.015,-00.149479,-00.928225,+00.347070*61"
1761940423.0452135,1761940423.0440216,-0.010621340789351653,-0.006610748701193882,-0.005972411980569476,-1.376,1.663,10.398,1.0850000000000001e-05,-1.2509999999999999e-05,1.525e-05,"$VNYMR,+034.028,+011.690,+003.919,-00.1251,+00.1085,-00.1525,+01.663,-01.376,-10.398,-00.378768,-00.608558,+00.342194*6E"
1761940423.0699892,1761940423.0690424,-0.003859516388105141,-0.012239243552657876,-0.005600988462452563,0.017,1.735,8.899,1.006e-05,-1.204e-05,1.5110000000000003e-05,"$VNYMR,+034.390,+011.183,+003.190,-00.1204,+00.1006,-00.1511,+01.735,+00.017,-08.899,-00.701257,-00.221134,+00.320913*6D"
1761940423.0955355,1761940423.0943172,-0.009491833510631003,-0.0007802668953965851,-0.006065839455428732,-0.166,1.493,7.507,1.025e-05,-1.1160000000000002e-05,1.485e-05,"$VNYMR,+034.845,+010.640,+002.734,-00.1116,+00.1025,-00.1485,+01.493,-00.166,-07.507,-00.044706,-00.543842,+00.347547*68"
1761940423.1201959,1761940423.1192145,-0.01789613491105182,0.004560737321678903,-0.00794749637529634,-1.05,1.225,8.201,9.66e-06,-1.03e-05,1.503e-05,"$VNYMR,+035.433,+009.365,+003.204,-00.1030,+00.0966,-00.1503,+01.225,-01.050,-08.201,+00.261311,-01.025373,+00.455358*6C"
1761940423.1470273,1761940423.1461332,-0.015523447059428125,-0.006566225351975507,-0.0032955830534932527,-0.497,1.057,9.701,1.062e-05,-9.31e-06,1.4890000000000001e-05,"$VNYMR,+035.761,+007.955,+003.124,-00.0931,+00.1062,-00.1489,+01.057,-00.497,-09.701,-00.376217,-00.889428,+00.188823*67"
1761940423.169596,1761940423.16899,-0.01389383313684102,-0.008742266956776996,-0.004956438369691057,0.486,0.546,10.046,1.042e-05,-8.24e-06,1.4950000000000001e-05,"$VNYMR,+036.006,+006.822,+002.394,-00.0824,+00.1042,-00.1495,+00.546,+00.486,-10.046,-00.500895,-00.796058,+00.283983*68"
1761940423.1947427,1761940423.193981,-0.01869301734092739,-0.004517156450256604,-0.007666742711820531,-0.495,0.238,10.214,1.002e-05,-7.370000000000001e-06,1.5129999999999999e-05,"$VNYMR,+036.539,+005.407,+001.994,-00.0737,+00.1002,-00.1513,+00.238,-00.495,-10.214,-00.258814,-01.071031,+00.439272*68"
1761940423.2198234,1761940423.2190506,-0.018905982416255733,-0.00929211548432529,-0.003968599466354786,-0.323,0.221,10.899,8.930000000000001e-06,-6.130000000000001e-06,1.551e-05,"$VNYMR,+036.950,+003.811,+001.504,-00.0613,+00.0893,-00.1551,+00.221,-00.323,-10.899,-00.532399,-01.083233,+00.227384*67"
1761940423.245183,1761940423.24408,-0.014907694899324525,-0.014365822526457846,-0.004387949725731464,0.591,-0.187,10.684,8.14e-06,-4.880000000000001e-06,1.533e-05,"$VNYMR,+037.240,+002.502,+000.430,-00.0488,+00.0814,-00.1533,-00.187,+00.591,-10.684,-00.823101,-00.854148,+00.251411*64"
1761940423.2702255,1761940423.269312,-0.017561956719172465,-0.01061881006193626,-0.006057584048066799,-0.115,-0.516,11.482,7.94e-06,-3.7100000000000005e-06,1.606e-05,"$VNYMR,+037.716,+001.110,-000.561,-00.0371,+00.0794,-00.1606,-00.516,-00.115,-11.482,-00.608413,-01.006226,+00.347074*64"
1761940423.2959921,1761940423.2954125,-0.015681155010638333,-0.010081632624757446,-0.0035000832819494284,-0.346,-0.645,11.551,8.02e-06,-2.06e-06,1.621e-05,"$VNYMR,+038.132,-000.226,-001.360,-00.0206,+00.0802,-00.1621,-00.645,-00.346,-11.551,-00.577635,-00.898464,+00.200540*65"
1761940423.3193748,1761940423.31892,-0.015525733440748238,-0.01311801683103702,-0.0016518494172575134,0.815,-0.842,11.876,7.71e-06,-7.100000000000001e-07,1.703e-05,"$VNYMR,+038.307,-001.474,-002.310,-00.0071,+00.0771,-00.1703,-00.842,+00.815,-11.876,-00.751607,-00.889559,+00.094644*67"
1761940423.3446383,1761940423.3439453,-0.01599582042148039,-0.017231775331280175,-0.00533999192610933,0.707,-1.744,13.268,7.5e-06,7.400000000000001e-07,1.741e-05,"$VNYMR,+038.605,-002.772,-003.482,+00.0074,+00.0750,-00.1741,-01.744,+00.707,-13.268,-00.987308,-00.916493,+00.305959*69"
1761940423.37117,1761940423.3703136,-0.012423777214471235,-0.0033224611239739657,0.0001532224550325822,1.868,-1.098,14.423,7.1e-06,1.8e-06,1.8350000000000002e-05,"$VNYMR,+038.563,-003.850,-004.095,+00.0180,+00.0710,-00.1835,-01.098,+01.868,-14.423,-00.190363,-00.711830,-00.008779*67"
1761940423.3942664,1761940423.3939855,-0.012252001909489952,0.0041037752169217475,-0.002772490423378032,1.075,-1.284,14.591,6.890000000000001e-06,2.87e-06,1.941e-05,"$VNYMR,+038.743,-004.869,-003.909,+00.0287,+00.0689,-00.1941,-01.284,+01.075,-14.591,+00.235129,-00.701988,+00.158852*64"
1761940423.4210708,1761940423.4200556,-0.007807765315381673,-0.0009731955909120381,-3.378957431861022e-05,-0.041,-1.629,16.015,7.280000000000001e-06,3.4500000000000004e-06,1.983e-05,"$VNYMR,+038.944,-005.664,-003.860,+00.0345,+00.0728,-00.1983,-01.629,-00.041,-16.015,-00.055760,-00.447352,+00.001936*69"
1761940423.4453177,1761940423.444296,-0.0032033773091103925,0.0026360754890421556,-0.0016421628399089449,0.983,-1.766,16.258,7.660000000000001e-06,3.9399999999999995e-06,2.0260000000000003e-05,"$VNYMR,+038.983,-006.051,-003.789,+00.0394,+00.0766,-00.2026,-01.766,+00.983,-16.258,+00.151036,-00.183540,+00.094089*64"
1761940423.469544,1761940423.4689994,-0.0022663449402996767,0.007849513591089378,-0.004978691317653985,0.649,-1.391,16.527,7.17e-06,3.84e-06,2.014e-05,"$VNYMR,+039.295,-006.285,-003.314,+00.0384,+00.0717,-00.2014,-01.391,+00.649,-16.527,+00.449744,-00.129852,+00.285258*62"
1761940423.4980621,1761940423.4975724,0.006017947620754008,0.0012893619849108108,-0.004930380603958782,-0.622,-1.198,16.477,7.280000000000001e-06,3.06e-06,1.985e-05,"$VNYMR,+039.751,-006.053,-003.025,+00.0306,+00.0728,-00.1985,-01.198,-00.622,-16.477,+00.073875,+00.344803,+00.282490*69"
1761940423.5196729,1761940423.5191388,0.012181473154416863,0.0009208880732297681,-0.003041637647328078,-0.174,-1.116,15.095,7.090000000000001e-06,2.29e-06,1.8990000000000003e-05,"$VNYMR,+039.970,-005.177,-003.012,+00.0229,+00.0709,-00.1899,-01.116,-00.174,-15.095,+00.052763,+00.697947,+00.174273*6E"
1761940423.5441597,1761940423.5438757,0.014000472754137874,0.004397531583324913,-0.003055478108296393,-0.109,-0.957,14.333,7.2999999999999996e-06,1.13e-06,1.8160000000000002e-05,"$VNYMR,+040.170,-004.095,-002.769,+00.0113,+00.0730,-00.1816,-00.957,-00.109,-14.333,+00.251960,+00.802168,+00.175066*6D"
1761940423.5690231,1761940423.5688515,0.017259508613094367,0.006056589210393163,-0.0013612346435079375,-0.277,-0.793,12.958,6.830000000000001e-06,-4.3e-07,1.734e-05,"$VNYMR,+040.293,-002.761,-002.306,-00.0043,+00.0683,-00.1734,-00.793,-00.277,-12.958,+00.347017,+00.988897,+00.077993*68"
1761940423.594107,1761940423.593898,0.017247849813691044,0.00778701335057546,0.001626419970055956,-0.557,-0.625,12.418,7.620000000000001e-06,-1.7800000000000001e-06,1.652e-05,"$VNYMR,+040.252,-001.382,-001.752,-00.0178,+00.0762,-00.1652,-00.625,-00.557,-12.418,+00.446163,+00.988229,-00.093187*65"
1761940423.6191092,1761940423.6189249,0.02049203292071306,0.0062177878201073586,0.005535538615502775,-0.107,-0.545,11.927,7.64e-06,-3.4299999999999998e-06,1.5490000000000002e-05,"$VNYMR,+039.946,+000.152,-001.250,-00.0343,+00.0764,-00.1549,-00.545,-00.107,-11.927,+00.356253,+01.174107,-00.317163*6F"
1761940423.6441,1761940423.6439257,0.02210663701173302,0.0055563254868940285,0.005514420131553644,1.377,-0.553,9.724,8.24e-06,-4.87e-06,1.4890000000000001e-05,"$VNYMR,+039.411,+001.951,-000.754,-00.0487,+00.0824,-00.1489,-00.553,+01.377,-09.724,+00.318354,+01.266617,-00.315953*61"
1761940423.6692212,1761940423.6690028,0.015374936993375929,0.0028328264556194767,0.002769785163037441,1.531,0.004,9.397,8.350000000000001e-06,-6.3299999999999995e-06,1.485e-05,"$VNYMR,+039.080,+003.433,-000.491,-00.0633,+00.0835,-00.1485,+00.004,+01.531,-09.397,+00.162309,+00.880919,-00.158697*6D"
1761940423.6965897,1761940423.6956477,0.017659154105216027,0.007778339064193049,-0.00041439352430101367,0.199,-0.136,11.063,8.65e-06,-7.290000000000001e-06,1.4560000000000001e-05,"$VNYMR,+039.073,+004.685,-000.078,-00.0729,+00.0865,-00.1456,-00.136,+00.199,-11.063,+00.445666,+01.011795,+00.023743*6F"
1761940423.7196596,1761940423.7190409,0.01847291386895838,0.0069028470048076536,0.0025604154659682014,0.375,-0.053,8.392,8.86e-06,-8.46e-06,1.4060000000000001e-05,"$VNYMR,+038.932,+006.264,+000.606,-00.0846,+00.0886,-00.1406,-00.053,+00.375,-08.392,+00.395504,+01.058420,-00.146701*64"
1761940423.745855,1761940423.7454712,0.015187715524514495,0.009222459393878196,0.002580853271509055,-0.149,-0.034,9.386,9.35e-06,-8.939999999999999e-06,1.475e-05,"$VNYMR,+038.751,+007.595,+001.159,-00.0894,+00.0935,-00.1475,-00.034,-00.149,-09.386,+00.528408,+00.870192,-00.147872*6F"
1761940423.770561,1761940423.7696767,0.015916547566854806,0.015062488150683903,0.004735130620538176,-0.995,0.46,9.789,9.66e-06,-1.0100000000000002e-05,1.4580000000000003e-05,"$VNYMR,+038.484,+008.835,+002.207,-00.1010,+00.0966,-00.1458,+00.460,-00.995,-09.789,+00.863017,+00.911951,-00.271303*68"
1761940423.794647,1761940423.7940578,0.01969937418762732,0.012165695377978835,0.00881845057862655,-0.271,0.83,8.218,1.132e-05,-1.124e-05,1.465e-05,"$VNYMR,+037.927,+010.419,+003.252,-00.1124,+00.1132,-00.1465,+00.830,-00.271,-08.218,+00.697043,+01.128691,-00.505260*69"
1761940423.8195646,1761940423.8190145,0.01814430327739289,0.011798425743481668,0.007249853366689166,0.318,1.281,7.713,1.055e-05,-1.1940000000000001e-05,1.5110000000000003e-05,"$VNYMR,+037.339,+012.030,+004.108,-00.1194,+00.1055,-00.1511,+01.281,+00.318,-07.713,+00.676000,+01.039592,-00.415386*6B"
1761940423.84473,1761940423.8441706,0.01918816724971818,0.011332248300273982,0.004933242943932052,0.008,1.759,6.867,1.124e-05,-1.29e-05,1.5490000000000002e-05,"$VNYMR,+036.976,+013.588,+005.030,-00.1290,+00.1124,-00.1549,+01.759,+00.008,-06.867,+00.649290,+01.099401,-00.282654*61"
1761940423.870352,1761940423.869404,0.015880960303406647,0.012377351456368186,0.004394110737991004,-0.381,2.046,6.381,1.202e-05,-1.347e-05,1.53e-05,"$VNYMR,+036.737,+015.024,+005.925,-00.1347,+00.1202,-00.1530,+02.046,-00.381,-06.381,+00.709170,+00.909912,-00.251764*67"
1761940423.894618,1761940423.8940313,0.014517002946265596,0.01111149905648174,0.004414478730361778,-0.624,2.438,5.264,1.232e-05,-1.4050000000000003e-05,1.6000000000000003e-05,"$VNYMR,+036.522,+016.302,+006.859,-00.1405,+00.1232,-00.1600,+02.438,-00.624,-05.264,+00.636642,+00.831763,-00.252931*64"
1761940423.9192727,1761940423.9190416,0.01172358602515615,0.008877390347466398,0.004462230938696342,-0.666,2.8,5.654,1.2620000000000001e-05,-1.4530000000000001e-05,1.58e-05,"$VNYMR,+036.279,+017.320,+007.596,-00.1453,+00.1262,-00.1580,+02.800,-00.666,-05.654,+00.508637,+00.671712,-00.255667*63"
1761940423.9450393,1761940423.9441717,0.009245532646589562,0.005891481063154499,0.004289024463728425,-0.529,2.939,4.749,1.2420000000000001e-05,-1.4829999999999999e-05,1.6800000000000002e-05,"$VNYMR,+036.032,+018.230,+008.111,-00.1483,+00.1242,-00.1680,+02.939,-00.529,-04.749,+00.337557,+00.529730,-00.245743*61"
1761940423.9693673,1761940423.969054,0.005992849786110329,0.0037009881321464957,0.0029148743837557295,-0.581,3.199,4.139,1.252e-05,-1.5320000000000002e-05,1.694e-05,"$VNYMR,+035.835,+018.891,+008.403,-00.1532,+00.1252,-00.1694,+03.199,-00.581,-04.139,+00.212051,+00.343365,-00.167010*6C"
1761940423.9970152,1761940423.9966886,0.002232485552810987,0.0017920866226552577,0.001986254501939627,-0.607,3.528,4.631,1.2620000000000001e-05,-1.541e-05,1.683e-05,"$VNYMR,+035.674,+019.175,+008.578,-00.1541,+00.1262,-00.1683,+03.528,-00.607,-04.631,+00.102679,+00.127912,-00.113804*6F"
1761940424.0198467,1761940424.0191808,0.00026248006620742723,-0.0028728119487826664,0.00011117747335203878,-0.135,3.618,3.476,1.243e-05,-1.58e-05,1.696e-05,"$VNYMR,+035.603,+019.303,+008.487,-00.1580,+00.1243,-00.1696,+03.618,-00.135,-03.476,-00.164600,+00.015039,-00.006370*62"
1761940424.045036,1761940424.0441053,-0.005671011072042576,-0.004926436159849275,-0.002839127094219176,-0.074,3.523,4.489,1.311e-05,-1.531e-05,1.672e-05,"$VNYMR,+035.689,+018.982,+008.125,-00.1531,+00.1311,-00.1672,+03.523,-00.074,-04.489,-00.282264,-00.324925,+00.162670*6F"
1761940424.0702174,1761940424.0692363,-0.009518187982336114,-0.0006229603699143361,-0.004156519066917016,-0.89,2.974,4.847,1.252e-05,-1.502e-05,1.6700000000000003e-05,"$VNYMR,+035.921,+018.322,+007.989,-00.1502,+00.1252,-00.1670,+02.974,-00.890,-04.847,-00.035693,-00.545352,+00.238151*65"
1761940424.0987008,1761940424.0983365,-0.013716315698620677,0.002603682178125141,-0.0022615103782716523,-1.19,2.443,5.92,1.2230000000000001e-05,-1.473e-05,1.636e-05,"$VNYMR,+036.041,+017.282,+008.163,-00.1473,+00.1223,-00.1636,+02.443,-01.190,-05.920,+00.149180,-00.785887,+00.129575*68"
1761940424.1196282,1761940424.1191235,-0.013381369561870445,-0.0001322261441310904,-0.0026924496238815722,-0.266,2.301,7.065,1.3100000000000002e-05,-1.414e-05,1.645e-05,"$VNYMR,+036.065,+016.109,+008.290,-00.1414,+00.1310,-00.1645,+02.301,-00.266,-07.065,-00.007576,-00.766696,+00.154266*68"
1761940424.1443563,1761940424.1439943,-0.011333504937335419,-0.011128271670593406,-0.006260391307148541,0.115,2.299,6.778,1.202e-05,-1.377e-05,1.664e-05,"$VNYMR,+036.329,+015.090,+007.810,-00.1377,+00.1202,-00.1664,+02.299,+00.115,-06.778,-00.637603,-00.649362,+00.358694*65"
1761940424.169085,1761940424.168944,-0.01177050047544976,-0.01288721449075329,-0.0076615241773570686,-1.058,1.37,6.827,1.1920000000000001e-05,-1.3280000000000002e-05,1.5850000000000002e-05,"$VNYMR,+036.856,+014.133,+006.807,-00.1328,+00.1192,-00.1585,+01.370,-01.058,-06.827,-00.738383,-00.674400,+00.438973*62"
1761940424.194079,1761940424.1939259,-0.016022052720137864,-0.0041429229520439795,-0.003082914684137744,-2.222,0.791,7.72,1.143e-05,-1.231e-05,1.536e-05,"$VNYMR,+037.184,+012.885,+006.278,-00.1231,+00.1143,-00.1536,+00.791,-02.222,-07.720,-00.237372,-00.917996,+00.176638*64"
1761940424.2190936,1761940424.218953,-0.014344546962876036,-0.004848681741672927,-0.0006467143010339788,-0.081,1.059,8.9,1.133e-05,-1.183e-05,1.556e-05,"$VNYMR,+037.121,+011.557,+006.018,-00.1183,+00.1133,-00.1556,+01.059,-00.081,-08.900,-00.277809,-00.821882,+00.037054*66"
1761940424.2441258,1761940424.2439687,-0.009551488864464167,-0.016510867083743917,-0.003626951265276896,1.02,1.397,8.213,1.064e-05,-1.1350000000000001e-05,1.487e-05,"$VNYMR,+037.406,+010.638,+005.022,-00.1135,+00.1064,-00.1487,+01.397,+01.020,-08.213,-00.946003,-00.547260,+00.207809*61"
1761940424.269199,1761940424.2690241,-0.010366924144288438,-0.012442469690760096,-0.009206507084514969,-0.94,0.821,7.452,1.005e-05,-1.039e-05,1.493e-05,"$VNYMR,+038.105,+009.862,+003.750,-00.1039,+00.1005,-00.1493,+00.821,-00.940,-07.452,-00.712901,-00.593981,+00.527494*6D"
1761940424.2942345,1761940424.294053,-0.01727045182750437,-0.001139752361429857,-0.005980073975985731,-2.857,0.623,8.874,1.004e-05,-9.610000000000001e-06,1.4560000000000001e-05,"$VNYMR,+038.707,+008.541,+003.458,-00.0961,+00.1004,-00.1456,+00.623,-02.857,-08.874,-00.065303,-00.989524,+00.342633*6D"
1761940424.319749,1761940424.3192446,-0.014507927234155223,-0.004620357768927028,0.0032750405281972796,-1.213,0.779,10.29,9.83e-06,-8.350000000000001e-06,1.462e-05,"$VNYMR,+038.607,+007.189,+003.302,-00.0835,+00.0983,-00.1462,+00.779,-01.213,-10.290,-00.264727,-00.831243,-00.187646*6F"
1761940424.3442547,1761940424.3440745,-0.009892316760793619,-0.012272945860513886,0.0009945409676639287,1.385,1.107,10.265,9.34e-06,-7.97e-06,1.4710000000000001e-05,"$VNYMR,+038.327,+006.262,+002.522,-00.0797,+00.0934,-00.1471,+01.107,+01.385,-10.265,-00.703188,-00.566788,-00.056983*6E"
1761940424.3692777,1761940424.369101,-0.01240075632163743,-0.010119715709035962,-0.004879451896385587,0.793,0.647,9.389,8.85e-06,-7.000000000000001e-06,1.488e-05,"$VNYMR,+038.524,+005.390,+001.586,-00.0700,+00.0885,-00.1488,+00.647,+00.793,-09.389,-00.579817,-00.710511,+00.279572*6B"
1761940424.3943746,1761940424.3941257,-0.016081271741658035,-0.006185446869067903,-0.00553089603969247,-0.385,0.269,9.161,8.15e-06,-5.750000000000001e-06,1.482e-05,"$VNYMR,+038.980,+004.185,+001.090,-00.0575,+00.0815,-00.1482,+00.269,-00.385,-09.161,-00.354400,-00.921389,+00.316897*60"
1761940424.4193716,1761940424.419155,-0.015775455150123588,-0.01608549543844786,-0.0006172880498453544,0.461,0.026,11.121,8.43e-06,-4.28e-06,1.465e-05,"$VNYMR,+039.176,+002.825,+000.060,-00.0428,+00.0843,-00.1465,+00.026,+00.461,-11.121,-00.921631,-00.903867,+00.035368*6D"
1761940424.4442332,1761940424.444061,-0.014834897216223842,-0.01561118476092588,-0.0033010284807594753,2.095,-0.211,11.749,7.83e-06,-2.8400000000000003e-06,1.546e-05,"$VNYMR,+039.300,+001.620,-001.249,-00.0284,+00.0783,-00.1546,-00.211,+02.095,-11.749,-00.894455,-00.849977,+00.189135*62"
1761940424.4693549,1761940424.469163,-0.015028471683562533,-0.010839402226095824,-0.006663928883502149,0.705,-0.736,11.97,7.430000000000001e-06,-1.68e-06,1.5740000000000002e-05,"$VNYMR,+039.835,+000.411,-002.281,-00.0168,+00.0743,-00.1574,-00.736,+00.705,-11.970,-00.621052,-00.861068,+00.381815*62"
1761940424.4943602,1761940424.4941452,-0.017812882705731687,-0.011331270915892866,-0.0038079942685862677,0.248,-1.09,12.757,6.92e-06,4.5e-07,1.686e-05,"$VNYMR,+040.316,-000.948,-003.148,+00.0045,+00.0692,-00.1686,-01.090,+00.248,-12.757,-00.649234,-01.020603,+00.218182*6E"
1761940424.5203676,1761940424.5192897,-0.013873517504347805,-0.010756464180041052,0.002578392357263743,1.407,-0.836,14.961,6.91e-06,1.5100000000000002e-06,1.781e-05,"$VNYMR,+040.533,-002.341,-004.071,+00.0151,+00.0691,-00.1781,-00.836,+01.407,-14.961,-00.616300,-00.794894,-00.147731*63"
1761940424.5448647,1761940424.544235,-0.012332897920319892,-0.0024693965454766972,-0.0024312087414430613,1.465,-0.971,15.311,6.700000000000001e-06,2.9600000000000005e-06,1.896e-05,"$VNYMR,+040.698,-003.388,-004.623,+00.0296,+00.0670,-00.1896,-00.971,+01.465,-15.311,-00.141486,-00.706623,+00.139298*6C"
1761940424.569722,1761940424.569178,-0.013144423662619694,0.0019690979153925226,-0.0029978996962731,-0.351,-1.288,15.542,6.39e-06,4.0200000000000005e-06,2.0130000000000002e-05,"$VNYMR,+041.072,-004.410,-004.589,+00.0402,+00.0639,-00.2013,-01.288,-00.351,-15.542,+00.112821,-00.753120,+00.171767*6A"
1761940424.594871,1761940424.5942194,-0.008635540073017544,0.002102580696585049,0.00019638444743440197,0.067,-1.166,16.523,6.78e-06,4.51e-06,2.022e-05,"$VNYMR,+041.200,-005.279,-004.445,+00.0451,+00.0678,-00.2022,-01.166,+00.067,-16.523,+00.120469,-00.494780,-00.011252*65"
1761940424.6198456,1761940424.6192396,-0.0043714040044225575,0.004412349428674345,9.258971681829918e-05,0.342,-0.937,16.303,7.16e-06,4.81e-06,2.065e-05,"$VNYMR,+041.233,-005.782,-004.182,+00.0481,+00.0716,-00.2065,-00.937,+00.342,-16.303,+00.252809,-00.250463,-00.005305*6A"
1761940424.645215,1761940424.6442072,0.00224979921899077,0.0026885924462346647,-0.00176367266243279,-0.073,-0.75,15.701,7.07e-06,4.32e-06,2.045e-05,"$VNYMR,+041.352,-005.835,-003.888,+00.0432,+00.0707,-00.2045,-00.750,-00.073,-15.701,+00.154045,+00.128904,+00.101051*6E"
1761940424.6702776,1761940424.6692352,0.005185826993280671,0.0007642796794483169,-0.0009920800534186168,0.191,-0.867,14.481,6.5900000000000004e-06,3.44e-06,1.949e-05,"$VNYMR,+041.436,-005.471,-003.779,+00.0344,+00.0659,-00.1949,-00.867,+00.191,-14.481,+00.043790,+00.297126,+00.056842*68"
1761940424.6980526,1761940424.6976655,0.006274650647137335,0.0007627437897065618,-0.0008945336015246537,0.311,-0.955,14.382,6.5000000000000004e-06,2.77e-06,1.8970000000000003e-05,"$VNYMR,+041.498,-004.991,-003.751,+00.0277,+00.0650,-00.1897,-00.955,+00.311,-14.382,+00.043702,+00.359511,+00.051253*65"
1761940424.7197049,1761940424.7191718,0.008361697913379634,0.00602028636195168,-0.000450923265545255,0.328,-1.144,14.198,6.81e-06,1.61e-06,1.78e-05,"$VNYMR,+041.510,-004.373,-003.439,+00.0161,+00.0681,-00.1780,-01.144,+00.328,-14.198,+00.344937,+00.479090,+00.025836*6B"
1761940424.7443285,1761940424.744114,0.008716156831167162,0.0068058066983967686,0.0014443472224879073,0.298,-1.16,12.908,6.63e-06,5.0000000000000004e-08,1.6760000000000002e-05,"$VNYMR,+041.400,-003.635,-002.859,+00.0005,+00.0663,-00.1676,-01.160,+00.298,-12.908,+00.389944,+00.499399,-00.082755*6C"
1761940424.7693172,1761940424.7691312,0.010391847446006916,0.011253603764179118,0.002521791329621567,0.086,-1.198,14.223,7.230000000000001e-06,-1.1e-06,1.66e-05,"$VNYMR,+041.214,-002.939,-002.122,-00.0110,+00.0723,-00.1660,-01.198,+00.086,-14.223,+00.644784,+00.595409,-00.144488*6A"
1761940424.7944179,1761940424.7941728,0.017049562957371967,0.008656990169524554,0.004984817423328485,0.508,-1.235,11.876,7.340000000000001e-06,-2.56e-06,1.611e-05,"$VNYMR,+040.875,-001.690,-001.286,-00.0256,+00.0734,-00.1611,-01.235,+00.508,-11.876,+00.496009,+00.976868,-00.285609*6E"
1761940424.8193324,1761940424.8191447,0.015651606586402068,0.008752093160465725,0.0024871814505545192,0.644,-1.104,12.137,8.720000000000001e-06,-3.8e-06,1.518e-05,"$VNYMR,+040.540,-000.405,-000.608,-00.0380,+00.0872,-00.1518,-01.104,+00.644,-12.137,+00.501458,+00.896771,-00.142505*61"
1761940424.8444626,1761940424.8442435,0.016702661315245573,0.0102063014932274,0.0044056648176392064,-0.309,-1.051,10.888,8.540000000000001e-06,-5.06e-06,1.5129999999999999e-05,"$VNYMR,+040.257,+001.015,+000.204,-00.0506,+00.0854,-00.1513,-01.051,-00.309,-10.888,+00.584778,+00.956992,-00.252426*6F"
1761940424.870478,1761940424.869554,0.021170372587793182,0.013364474774711138,0.0068999846648343825,-0.319,-0.96,11.775,9.030000000000002e-06,-6.4199999999999995e-06,1.552e-05,"$VNYMR,+039.770,+002.514,+001.164,-00.0642,+00.0903,-00.1552,-00.960,-00.319,-11.775,+00.765728,+01.212973,-00.395340*60"
1761940424.8948455,1761940424.8942246,0.02187218693331262,0.012199659485222643,0.007523433726939277,0.241,-0.832,8.453,1.0320000000000001e-05,-8.15e-06,1.462e-05,"$VNYMR,+039.194,+004.414,+002.254,-00.0815,+00.1032,-00.1462,-00.832,+00.241,-08.453,+00.698989,+01.253184,-00.431061*65"
1761940424.9202788,1761940424.9194179,0.020695538311495603,0.0035243957184297094,0.007140159423201322,-0.038,-0.359,10.432,9.84e-06,-8.930000000000001e-06,1.4420000000000001e-05,"$VNYMR,+038.666,+006.077,+002.771,-00.0893,+00.0984,-00.1442,-00.359,-00.038,-10.432,+00.201933,+01.185767,-00.409101*6E"
1761940424.944838,1761940424.9442286,0.03082214807107694,0.005951118963695145,0.007003814302035526,-0.614,0.024,9.688,1.005e-05,-1.019e-05,1.47e-05,"$VNYMR,+038.204,+008.322,+003.019,-00.1019,+00.1005,-00.1470,+00.024,-00.614,-09.688,+00.340974,+01.765979,-00.401289*69"
1761940424.9703417,1761940424.9694047,0.025115043590103126,0.01221575142092603,0.008891038822216993,-0.594,0.728,5.3,1.094e-05,-1.1740000000000001e-05,1.5220000000000002e-05,"$VNYMR,+037.652,+010.731,+003.862,-00.1174,+00.1094,-00.1522,+00.728,-00.594,-05.300,+00.699911,+01.438986,-00.509419*68"
1761940424.994993,1761940424.9943097,0.020993413654933474,0.011395341952733576,0.010678221069674148,0.025,1.95,6.167,1.1040000000000001e-05,-1.2410000000000001e-05,1.4810000000000002e-05,"$VNYMR,+036.911,+012.540,+004.757,-00.1241,+00.1104,-00.1481,+01.950,+00.025,-06.167,+00.652905,+01.202834,-00.611817*68"
1761940425.0198956,1761940425.0192654,0.02095444045273644,0.005951415669667984,0.008144526594553978,1.23,2.593,5.141,1.134e-05,-1.358e-05,1.53e-05,"$VNYMR,+036.257,+014.369,+005.278,-00.1358,+00.1134,-00.1530,+02.593,+01.230,-05.141,+00.340991,+01.200601,-00.466647*6A"
1761940425.044476,1761940425.0442522,0.017922402116294332,0.006340693906032799,0.0028941224189495173,0.258,2.756,5.529,1.164e-05,-1.4160000000000002e-05,1.588e-05,"$VNYMR,+036.032,+015.950,+005.686,-00.1416,+00.1164,-00.1588,+02.756,+00.258,-05.529,+00.363295,+01.026878,-00.165821*6A"
1761940425.0699425,1761940425.0693,0.01653816403324511,0.008204094681924545,0.00369953950886734,-0.883,2.706,4.318,1.1840000000000002e-05,-1.4540000000000001e-05,1.546e-05,"$VNYMR,+035.933,+017.404,+006.295,-00.1454,+00.1184,-00.1546,+02.706,-00.883,-04.318,+00.470060,+00.947567,-00.211968*67"
1761940425.0948408,1761940425.0943666,0.00972970443438531,0.008555935605834083,0.006509170538727812,-0.607,2.819,4.561,1.214e-05,-1.5220000000000002e-05,1.626e-05,"$VNYMR,+035.574,+018.452,+006.847,-00.1522,+00.1214,-00.1626,+02.819,-00.607,-04.561,+00.490219,+00.557471,-00.372948*6A"
1761940425.1202993,1761940425.1193411,0.005320688584582273,0.007854208526777243,0.007187702192025648,-0.534,2.988,4.84,1.253e-05,-1.5700000000000002e-05,1.6289999999999998e-05,"$VNYMR,+035.071,+019.099,+007.355,-00.1570,+00.1253,-00.1629,+02.988,-00.534,-04.840,+00.450013,+00.304853,-00.411825*6E"
1761940425.1452382,1761940425.1444032,0.003219242352011021,0.004811837841163327,0.004274939656664831,0.899,3.395,4.883,1.263e-05,-1.609e-05,1.6530000000000003e-05,"$VNYMR,+034.584,+019.476,+007.735,-00.1609,+00.1263,-00.1653,+03.395,+00.899,-04.883,+00.275698,+00.184449,-00.244936*6C"
1761940425.1700876,1761940425.1694567,0.002685677746383834,-0.0014458482056446224,-0.0019986288863362667,0.84,3.587,5.248,1.283e-05,-1.609e-05,1.631e-05,"$VNYMR,+034.582,+019.692,+007.792,-00.1609,+00.1283,-00.1631,+03.587,+00.840,-05.248,-00.082841,+00.153878,+00.114513*61"
1761940425.1948667,1761940425.1943183,0.0003568849254478005,-0.0033624989770147154,-0.007156966943898027,-0.512,3.207,4.621,1.234e-05,-1.609e-05,1.6530000000000003e-05,"$VNYMR,+035.090,+019.763,+007.722,-00.1609,+00.1234,-00.1653,+03.207,-00.512,-04.621,-00.192657,+00.020448,+00.410064*64"
1761940425.2199757,1761940425.219367,-0.005150047743614788,-0.0015358548351699702,-0.005145858953410001,-1.788,2.886,4.513,1.3020000000000002e-05,-1.599e-05,1.631e-05,"$VNYMR,+035.585,+019.442,+007.713,-00.1599,+00.1302,-00.1631,+02.886,-01.788,-04.513,-00.087998,-00.295076,+00.294836*62"
1761940425.2473311,1761940425.2448852,-0.012460464035348158,0.0014511016466931253,-0.0013406921182119642,-1.6,2.505,4.279,1.3500000000000001e-05,-1.54e-05,1.684e-05,"$VNYMR,+035.714,+018.664,+007.800,-00.1540,+00.1350,-00.1684,+02.505,-01.600,-04.279,+00.083142,-00.713932,+00.076816*60"
1761940425.2696955,1761940425.2693796,-0.017344872666809407,0.0012575097260619146,-0.0005714382503954634,-0.693,2.443,5.893,1.243e-05,-1.493e-05,1.626e-05,"$VNYMR,+035.578,+017.366,+007.892,-00.1493,+00.1243,-00.1626,+02.443,-00.693,-05.893,+00.072050,-00.993788,+00.032741*60"
1761940425.300654,1761940425.3003032,-0.01619836588117433,-0.002283204820873942,-0.0037179178258908404,-0.062,2.697,6.828,1.2230000000000001e-05,-1.4540000000000001e-05,1.6020000000000002e-05,"$VNYMR,+035.564,+015.966,+007.852,-00.1454,+00.1223,-00.1602,+02.697,-00.062,-06.828,-00.130818,-00.928098,+00.213021*61"
1761940425.3198533,1761940425.319283,-0.013522793591159545,-0.0076179258526422496,-0.007436202170924601,-0.549,2.389,6.561,1.232e-05,-1.415e-05,1.5890000000000002e-05,"$VNYMR,+035.928,+014.698,+007.501,-00.1415,+00.1232,-00.1589,+02.389,-00.549,-06.561,-00.436475,-00.774799,+00.426063*61"
1761940425.3445923,1761940425.3442335,-0.01137005213187218,-0.019714453832364552,-0.00825821734202889,-0.091,1.973,6.085,1.163e-05,-1.3180000000000001e-05,1.54e-05,"$VNYMR,+036.460,+013.594,+006.440,-00.1318,+00.1163,-00.1540,+01.973,-00.091,-06.085,-01.129555,-00.651456,+00.473161*69"
1761940425.369447,1761940425.3692243,-0.01934154678438344,-0.014823046430602801,-0.009100792491721674,-1.319,1.227,6.94,1.114e-05,-1.2410000000000001e-05,1.525e-05,"$VNYMR,+037.088,+012.241,+005.021,-00.1241,+00.1114,-00.1525,+01.227,-01.319,-06.940,-00.849298,-01.108189,+00.521437*67"
1761940425.3945389,1761940425.394274,-0.02010607080992704,-0.004265497425411542,-0.0019086920699809987,-2.46,1.02,8.657,1.103e-05,-1.1730000000000001e-05,1.5220000000000002e-05,"$VNYMR,+037.401,+010.525,+004.446,-00.1173,+00.1103,-00.1522,+01.020,-02.460,-08.657,-00.244395,-01.151993,+00.109360*65"
1761940425.419484,1761940425.4192853,-0.01191157543888846,-0.011243428494639992,0.005660015497755011,-0.625,1.371,10.938,1.083e-05,-1.076e-05,1.4840000000000002e-05,"$VNYMR,+037.191,+009.217,+003.651,-00.1076,+00.1083,-00.1484,+01.371,-00.625,-10.938,-00.644201,-00.682483,-00.324295*61"
1761940425.444518,1761940425.4443154,-8.885471221903132e-05,-0.023205635935128806,-0.003838816783176488,1.636,1.514,7.755,9.950000000000001e-06,-1.0290000000000001e-05,1.437e-05,"$VNYMR,+037.203,+008.963,+002.096,-00.1029,+00.0995,-00.1437,+01.514,+01.636,-07.755,-01.329585,-00.005091,+00.219948*6A"
1761940425.469575,1761940425.469358,-0.010764737040695508,-0.011213565911138368,-0.004406694561897883,-0.096,0.284,7.41,9.270000000000001e-06,-1.02e-05,1.4030000000000001e-05,"$VNYMR,+037.563,+008.363,+000.698,-00.1020,+00.0927,-00.1403,+00.284,-00.096,-07.410,-00.642490,-00.616774,+00.252485*6D"
1761940425.4952626,1761940425.494373,-0.02707733472141287,0.003455699559071213,0.0008069704329520982,-0.75,0.255,8.102,8.76e-06,-8.65e-06,1.44e-05,"$VNYMR,+037.676,+006.675,+000.648,-00.0865,+00.0876,-00.1440,+00.255,-00.750,-08.102,+00.197997,-01.551417,-00.046236*62"
1761940425.5201836,1761940425.519399,-0.02041272515950244,-0.002870543020755074,0.0030979070624123748,0.769,0.861,12.248,1.002e-05,-7.57e-06,1.437e-05,"$VNYMR,+037.456,+004.637,+000.719,-00.0757,+00.1002,-00.1437,+00.861,+00.769,-12.248,-00.164470,-01.169563,-00.177497*6D"
1761940425.545014,1761940425.5444086,-0.009502881444796126,-0.007587592030242589,-0.0032113883703770462,2.14,0.489,11.258,8.26e-06,-6.710000000000001e-06,1.3980000000000002e-05,"$VNYMR,+037.433,+003.590,+000.139,-00.0671,+00.0826,-00.1398,+00.489,+02.140,-11.258,-00.434737,-00.544475,+00.183999*6E"
1761940425.570162,1761940425.569404,-0.014813848545444791,0.003544205205439845,-0.006872408462652872,-0.324,-0.072,10.058,8.64e-06,-5.74e-06,1.5160000000000002e-05,"$VNYMR,+037.943,+002.569,+000.158,-00.0574,+00.0864,-00.1516,-00.072,-00.324,-10.058,+00.203068,-00.848771,+00.393760*61"
1761940425.595574,1761940425.5946624,-0.013734990721617017,-0.006019204257815444,-0.001285400087508784,-0.686,-0.201,10.272,8.720000000000001e-06,-3.99e-06,1.552e-05,"$VNYMR,+038.249,+001.351,+000.152,-00.0399,+00.0872,-00.1552,-00.201,-00.686,-10.272,-00.344875,-00.786957,+00.073648*69"
1761940425.620018,1761940425.6194077,-0.010243930791900398,-0.01714744102182381,0.000903993286070463,1.275,-0.342,11.691,8.22e-06,-2.8400000000000003e-06,1.6020000000000002e-05,"$VNYMR,+038.224,+000.393,-001.097,-00.0284,+00.0822,-00.1602,-00.342,+01.275,-11.691,-00.982476,-00.586934,-00.051795*62"
1761940425.6449535,1761940425.6443603,-0.01010783001682988,-0.003766054006660844,-0.005791264257504985,1.305,-0.737,11.833,7.620000000000001e-06,-1.4800000000000002e-06,1.607e-05,"$VNYMR,+038.484,-000.418,-001.871,-00.0148,+00.0762,-00.1607,-00.737,+01.305,-11.833,-00.215779,-00.579136,+00.331815*60"
1761940425.6702747,1761940425.6694229,-0.014733545946560532,-0.012710656983621544,-0.007654525407056571,-0.842,-2.172,11.422,7.31e-06,2.6e-07,1.6760000000000002e-05,"$VNYMR,+039.055,-001.479,-002.301,+00.0026,+00.0731,-00.1676,-02.172,-00.842,-11.422,-00.728267,-00.844170,+00.438572*6B"
1761940425.69472,1761940425.694465,-0.01077297499476492,-0.014041278552049502,0.004198110262992041,1.554,-1.076,13.437,7.3899999999999995e-06,1.91e-06,1.7690000000000002e-05,"$VNYMR,+038.741,-002.489,-003.292,+00.0191,+00.0739,-00.1769,-01.076,+01.554,-13.437,-00.804506,-00.617246,-00.240534*6B"
1761940425.7194366,1761940425.7192812,-0.014418793269255874,0.001839629391479583,-0.002710077449326715,2.228,-1.37,14.78,7.180000000000001e-06,3.36e-06,1.862e-05,"$VNYMR,+038.698,-003.590,-003.660,+00.0336,+00.0718,-00.1862,-01.370,+02.228,-14.780,+00.105403,-00.826136,+00.155276*67"
1761940425.7445421,1761940425.744364,-0.017167198148956387,0.007093594038758113,-0.004650080726088492,-0.6,-2.15,16.438,7.36e-06,4.62e-06,2.055e-05,"$VNYMR,+039.229,-004.920,-003.162,+00.0462,+00.0736,-00.2055,-02.150,-00.600,-16.438,+00.406433,-00.983608,+00.266430*65"
1761940425.769546,1761940425.7693884,-0.012415312367599064,0.0033757111194523126,-0.0019897626137361352,-0.176,-2.191,18.821,7.74e-06,5.690000000000001e-06,2.085e-05,"$VNYMR,+039.501,-006.121,-002.809,+00.0569,+00.0774,-00.2085,-02.191,-00.176,-18.821,+00.193414,-00.711345,+00.114005*67"
1761940425.7944796,1761940425.7943246,-0.00436143817439367,0.004169591583014453,-0.0033953635268297684,-0.568,-1.777,19.057,7.45e-06,5.49e-06,2.063e-05,"$VNYMR,+039.787,-006.740,-002.596,+00.0549,+00.0745,-00.2063,-01.777,-00.568,-19.057,+00.238900,-00.249892,+00.194540*68"
1761940425.8195739,1761940425.8193767,0.004084960567585248,0.005117846418915493,-0.0026547854186235345,-0.889,-1.342,17.09,7.65e-06,5.01e-06,2.076e-05,"$VNYMR,+040.065,-006.658,-002.174,+00.0501,+00.0765,-00.2076,-01.342,-00.889,-17.090,+00.293231,+00.234051,+00.152108*63"
1761940425.8445091,1761940425.8443315,0.008812533912462287,0.001772259682352602,-0.00263473158551812,-0.371,-0.928,15.133,7.5600000000000005e-06,3.84e-06,2.0260000000000003e-05,"$VNYMR,+040.253,-006.052,-001.956,+00.0384,+00.0756,-00.2026,-00.928,-00.371,-15.133,+00.101543,+00.504921,+00.150959*62"
1761940425.86959,1761940425.8693807,0.007736084643002266,0.004097369858566928,-0.0032685479033798606,-0.571,-1.062,13.896,7.580000000000001e-06,2.49e-06,1.9430000000000002e-05,"$VNYMR,+040.497,-005.341,-001.762,+00.0249,+00.0758,-00.1943,-01.062,-00.571,-13.896,+00.234762,+00.443245,+00.187274*61"
1761940425.894782,1761940425.8945456,0.005477576231044044,0.0032584773535958536,-0.0016819738001469353,-0.525,-1.103,13.454,7.2999999999999996e-06,1.32e-06,1.76e-05,"$VNYMR,+040.681,-004.794,-001.441,+00.0132,+00.0730,-00.1760,-01.103,-00.525,-13.454,+00.186697,+00.313842,+00.096370*6A"
1761940425.9204302,1761940425.9196491,0.010331528867057993,0.007848030061225182,-1.6493361431346413e-05,-0.311,-1.256,15.005,7.41e-06,-2.3e-07,1.701e-05,"$VNYMR,+040.679,-004.189,-000.955,-00.0023,+00.0741,-00.1701,-01.256,-00.311,-15.005,+00.449659,+00.591953,+00.000945*66"
1761940425.9447923,1761940425.9444163,0.01711263915653904,0.009849556194119759,0.005172963916693474,-0.951,-1.595,13.897,8.010000000000001e-06,-1.4800000000000002e-06,1.6289999999999998e-05,"$VNYMR,+040.479,-003.018,-000.189,-00.0148,+00.0801,-00.1629,-01.595,-00.951,-13.897,+00.564338,+00.980482,-00.296389*6C"
1761940425.969595,1761940425.9693763,0.022263803910875107,0.0015739728260335262,0.007440548040762066,0.235,-1.35,11.901,8.71e-06,-3.2099999999999998e-06,1.527e-05,"$VNYMR,+039.885,-001.317,+000.257,-00.0321,+00.0871,-00.1527,-01.350,+00.235,-11.901,+00.090182,+01.275622,-00.426312*64"
1761940425.9946167,1761940425.9944131,0.023773461353972642,0.0065633106521246765,0.006384501670257857,0.283,-1.397,11.1,8.44e-06,-5.06e-06,1.4570000000000001e-05,"$VNYMR,+039.319,+000.581,+000.629,-00.0506,+00.0844,-00.1457,-01.397,+00.283,-11.100,+00.376050,+01.362119,-00.365805*65"
1761940426.0196393,1761940426.0194216,0.01953805340486548,0.0057024968117485525,0.007135150328248099,0.2,-1.019,8.618,9.43e-06,-6.4100000000000005e-06,1.475e-05,"$VNYMR,+038.782,+002.392,+001.242,-00.0641,+00.0943,-00.1475,-01.019,+00.200,-08.618,+00.326729,+01.119448,-00.408814*6D"
1761940426.044583,1761940426.0444052,0.0179873981776386,0.009170692928264045,0.008154858943725786,0.744,-0.329,10.72,9.24e-06,-7.670000000000001e-06,1.447e-05,"$VNYMR,+038.195,+003.797,+001.796,-00.0767,+00.0924,-00.1447,-00.329,+00.744,-10.720,+00.525442,+01.030602,-00.467239*62"
1761940426.0700014,1761940426.069708,0.0243959155784039,0.006147904836857505,0.0056818844732825,0.867,-0.077,8.523,9.84e-06,-9.02e-06,1.3980000000000002e-05,"$VNYMR,+037.738,+005.679,+002.381,-00.0902,+00.0984,-00.1398,-00.077,+00.867,-08.523,+00.352249,+01.397783,-00.325548*6B"
1761940426.0947073,1761940426.094488,0.02228968714368218,0.011664716069486382,0.004151230719283473,0.252,0.229,8.997,1.0440000000000002e-05,-1.0090000000000002e-05,1.4480000000000002e-05,"$VNYMR,+037.419,+007.556,+003.014,-00.1009,+00.1044,-00.1448,+00.229,+00.252,-08.997,+00.668339,+01.277105,-00.237848*66"
1761940426.1213048,1761940426.1197433,0.022559532499333027,0.020167384226549595,0.00801486608442332,-1.31,0.559,7.339,1.035e-05,-1.1350000000000001e-05,1.4860000000000002e-05,"$VNYMR,+037.069,+009.447,+004.401,-00.1135,+00.1035,-00.1486,+00.559,-01.310,-07.339,+01.155506,+01.292566,-00.459218*6F"
1761940426.1451294,1761940426.1444726,0.019902163993416537,0.015413561129722564,0.010288436687826254,0.442,1.203,4.368,1.153e-05,-1.231e-05,1.503e-05,"$VNYMR,+036.411,+011.336,+005.733,-00.1231,+00.1153,-00.1503,+01.203,+00.442,-04.368,+00.883132,+01.140310,-00.589484*69"
1761940426.1706092,1761940426.1698947,0.016083662842733264,0.012102060673451123,0.0073261591615863585,-0.476,1.732,6.414,1.202e-05,-1.2790000000000001e-05,1.4940000000000001e-05,"$VNYMR,+035.894,+012.702,+006.670,-00.1279,+00.1202,-00.1494,+01.732,-00.476,-06.414,+00.693397,+00.921526,-00.419758*67"
1761940426.1948206,1761940426.1945095,0.016819196949401236,0.012729105113815123,0.008380355483083453,-0.899,2.03,5.118,1.232e-05,-1.415e-05,1.5890000000000002e-05,"$VNYMR,+035.393,+014.190,+007.543,-00.1415,+00.1232,-00.1589,+02.030,-00.899,-05.118,+00.729324,+00.963669,-00.480159*60"
1761940426.2205153,1761940426.2196558,0.012174317304483685,0.011826734983949014,0.009458829334475788,-0.814,2.372,3.993,1.281e-05,-1.4530000000000001e-05,1.624e-05,"$VNYMR,+034.796,+015.444,+008.441,-00.1453,+00.1281,-00.1624,+02.372,-00.814,-03.993,+00.677622,+00.697537,-00.541951*6B"
1761940426.245208,1761940426.2445512,0.00799914066786285,0.008732859632108748,0.007776733361281214,0.425,2.675,4.918,1.301e-05,-1.5210000000000002e-05,1.694e-05,"$VNYMR,+034.149,+016.299,+009.059,-00.1521,+00.1301,-00.1694,+02.675,+00.425,-04.918,+00.500356,+00.458317,-00.445574*60"
1761940426.2701318,1761940426.2694924,0.00726716703286895,0.005698290568251246,0.002712817616252346,-0.011,2.669,5.193,1.321e-05,-1.5210000000000002e-05,1.672e-05,"$VNYMR,+033.867,+016.948,+009.572,-00.1521,+00.1321,-00.1672,+02.669,-00.011,-05.193,+00.326488,+00.416378,-00.155433*62"
1761940426.2960923,1761940426.2954385,0.002717564911817771,0.004818051213300427,0.001112647398146385,-1.053,2.513,4.9,1.3020000000000002e-05,-1.56e-05,1.596e-05,"$VNYMR,+033.829,+017.361,+009.942,-00.1560,+00.1302,-00.1596,+02.513,-01.053,-04.900,+00.276054,+00.155705,-00.063750*6F"
1761940426.320744,1761940426.3199158,-2.4068090385001804e-05,0.0023787441441281117,0.002048335863433065,-1.372,2.553,5.023,1.2920000000000002e-05,-1.56e-05,1.6950000000000002e-05,"$VNYMR,+033.713,+017.492,+010.172,-00.1560,+00.1292,-00.1695,+02.553,-01.372,-05.023,+00.136292,-00.001379,-00.117361*66"
1761940426.3453236,1761940426.3446465,-0.002233078964756665,0.0006807831280329082,0.001963425595323541,-0.468,2.963,4.897,1.3400000000000002e-05,-1.56e-05,1.718e-05,"$VNYMR,+033.487,+017.405,+010.264,-00.1560,+00.1340,-00.1718,+02.963,-00.468,-04.897,+00.039006,-00.127946,-00.112496*64"
1761940426.370556,1761940426.3699892,-0.004833322844255377,-0.003777259020458648,-0.0022647043308028024,-0.052,3.489,5.196,1.2920000000000002e-05,-1.5700000000000002e-05,1.696e-05,"$VNYMR,+033.455,+017.064,+010.069,-00.1570,+00.1292,-00.1696,+03.489,-00.052,-05.196,-00.216421,-00.276929,+00.129758*6A"
1761940426.3946912,1761940426.3944802,-0.007007706386267472,-0.00420140893527831,-0.0049923397924045805,-0.506,3.332,4.742,1.301e-05,-1.551e-05,1.75e-05,"$VNYMR,+033.698,+016.545,+009.804,-00.1551,+00.1301,-00.1750,+03.332,-00.506,-04.742,-00.240723,-00.401512,+00.286040*63"
1761940426.419676,1761940426.4194915,-0.011252434393580282,-0.0010000736613927509,-0.0042935448664910905,-1.402,2.791,5.182,1.3300000000000001e-05,-1.462e-05,1.6470000000000003e-05,"$VNYMR,+033.969,+015.707,+009.678,-00.1462,+00.1330,-00.1647,+02.791,-01.402,-05.182,-00.057300,-00.644717,+00.246002*68"
1761940426.4448779,1761940426.4445574,-0.013082255034663657,0.0007966904436578516,-0.00221611436442728,-0.785,2.55,4.564,1.2420000000000001e-05,-1.444e-05,1.635e-05,"$VNYMR,+034.039,+014.671,+009.758,-00.1444,+00.1242,-00.1635,+02.550,-00.785,-04.564,+00.045647,-00.749558,+00.126974*60"
1761940426.4706433,1761940426.4696596,-0.017471443944164035,-0.009991992514375016,-0.005623991901993848,0.187,2.16,3.986,1.2800000000000001e-05,-1.3660000000000001e-05,1.621e-05,"$VNYMR,+034.151,+013.379,+009.342,-00.1366,+00.1280,-00.1621,+02.160,+00.187,-03.986,-00.572499,-01.001040,+00.322231*68"
1761940426.495651,1761940426.4950526,-0.01995681025229648,-0.01864982044194053,-0.008523193229066668,0.136,2.017,6.214,1.309e-05,-1.3070000000000002e-05,1.607e-05,"$VNYMR,+034.515,+011.708,+008.133,-00.1307,+00.1309,-00.1607,+02.017,+00.136,-06.214,-01.068556,-01.143441,+00.488343*68"
1761940426.524511,1761940426.523886,-0.019810970539999834,-0.013304068929299617,-0.011971841657959824,-0.355,1.315,8.186,1.23e-05,-1.2100000000000001e-05,1.525e-05,"$VNYMR,+035.183,+009.998,+006.839,-00.1210,+00.1230,-00.1525,+01.315,-00.355,-08.186,-00.762267,-01.135085,+00.685936*68"
1761940426.544818,1761940426.5444717,-0.016277865628602672,-0.002810521147778989,-0.01031725207377668,-2.013,0.482,9.301,1.152e-05,-1.1050000000000001e-05,1.508e-05,"$VNYMR,+035.990,+008.393,+006.417,-00.1105,+00.1152,-00.1508,+00.482,-02.013,-09.301,-00.161031,-00.932653,+00.591135*60"
1761940426.5696726,1761940426.569498,-0.014046235287125165,-0.004182105593751252,-0.003944723362187504,-1.012,0.074,7.29,1.083e-05,-1.057e-05,1.528e-05,"$VNYMR,+036.586,+007.231,+006.147,-00.1057,+00.1083,-00.1528,+00.074,-01.012,-07.290,-00.239617,-00.804790,+00.226016*62"
1761940426.594647,1761940426.5944757,-0.01904962301369487,-0.013018410890625704,-0.008520924301039077,0.532,0.093,8.727,1.072e-05,-9.410000000000001e-06,1.5120000000000001e-05,"$VNYMR,+037.028,+005.738,+005.376,-00.0941,+00.1072,-00.1512,+00.093,+00.532,-08.727,-00.745900,-01.091463,+00.488213*60"
1761940426.6197996,1761940426.6195421,-0.02023361947166278,-0.008119795279053219,-0.008662941742273856,-0.516,-0.668,11.51,1.0320000000000001e-05,-8.050000000000001e-06,1.4940000000000001e-05,"$VNYMR,+037.598,+004.046,+004.453,-00.0805,+00.1032,-00.1494,-00.668,-00.516,-11.510,-00.465230,-01.159301,+00.496350*66"
1761940426.644993,1761940426.64464,-0.019087234859075347,0.008489072042190179,-0.0077493665986099435,-1.579,-0.615,11.426,1.011e-05,-6.98e-06,1.5010000000000002e-05,"$VNYMR,+038.148,+002.419,+004.728,-00.0698,+00.1011,-00.1501,-00.615,-01.579,-11.426,+00.486388,-01.093618,+00.444006*6B"
1761940426.670649,1761940426.6696758,-0.013969004467724415,0.0002959729345531984,-0.0031226209246206144,-1.43,-0.089,11.483,9.91e-06,-5.920000000000001e-06,1.54e-05,"$VNYMR,+038.430,+001.001,+005.205,-00.0592,+00.0991,-00.1540,-00.089,-01.430,-11.483,+00.016958,-00.800365,+00.178913*69"
1761940426.694881,1761940426.6937509,-0.00884304226778715,-0.013239003054785268,-0.0020131500257128594,-0.153,-0.08,10.934,9.51e-06,-4.66e-06,1.578e-05,"$VNYMR,+038.525,+000.181,+004.464,-00.0466,+00.0951,-00.1578,-00.080,-00.153,-10.934,-00.758539,-00.506669,+00.115345*61"
1761940426.720484,1761940426.7199094,-0.011430737229964022,-0.006621273036583409,-0.008278794773909902,0.662,-0.413,10.222,9.21e-06,-3.89e-06,1.597e-05,"$VNYMR,+038.849,-000.605,+003.723,-00.0389,+00.0921,-00.1597,-00.413,+00.662,-10.222,-00.379371,-00.654933,+00.474340*63"
1761940426.7444184,1761940426.7437258,-0.010331406694010354,-0.008820108641415945,-0.006603488131505586,-0.875,-0.686,12.298,8.9e-06,-2.53e-06,1.6020000000000002e-05,"$VNYMR,+039.492,-001.639,+003.168,-00.0253,+00.0890,-00.1602,-00.686,-00.875,-12.298,-00.505355,-00.591946,+00.378352*65"
1761940426.7702327,1761940426.7696116,-0.005940594628305619,-0.012276907757915914,-0.0036518745669953754,-0.272,-1.182,11.649,8.400000000000001e-06,-1.28e-06,1.651e-05,"$VNYMR,+039.867,-002.195,+002.210,-00.0128,+00.0840,-00.1651,-01.182,-00.272,-11.649,-00.703415,-00.340371,+00.209237*6A"
1761940426.7954025,1761940426.7946408,-0.009989426880374585,-0.004008515146347896,-0.005372385237026346,0.415,-1.144,11.28,8.29e-06,-2e-08,1.712e-05,"$VNYMR,+040.190,-002.901,+001.545,-00.0002,+00.0829,-00.1712,-01.144,+00.415,-11.280,-00.229671,-00.572352,+00.307815*60"
1761940426.8204587,1761940426.819682,-0.013530123974017922,0.0025998599070632734,-0.007958875922019343,-1.441,-1.473,12.689,7.98e-06,1.43e-06,1.783e-05,"$VNYMR,+040.831,-004.011,+001.574,+00.0143,+00.0798,-00.1783,-01.473,-01.441,-12.689,+00.148961,-00.775219,+00.456010*61"
1761940426.8446872,1761940426.844004,-0.01007398808263371,-0.002927789820220488,-0.0038835495719051023,-0.563,-1.676,12.902,7.77e-06,2.88e-06,1.887e-05,"$VNYMR,+041.136,-004.924,+001.703,+00.0288,+00.0777,-00.1887,-01.676,-00.563,-12.902,-00.167750,-00.577197,+00.222511*65"
1761940426.870287,1761940426.8696473,-0.006360608112798054,0.0008266577469145943,-0.002656530747875529,-0.367,-1.675,14.143,7.370000000000001e-06,4.23e-06,2.002e-05,"$VNYMR,+041.302,-005.582,+001.683,+00.0423,+00.0737,-00.2002,-01.675,-00.367,-14.143,+00.047364,-00.364436,+00.152208*60"
1761940426.8947482,1761940426.8938987,-0.00807036755463674,0.0061895134862250505,-0.0034052420903960567,-1.568,-1.929,13.901,7.55e-06,4.9100000000000004e-06,2.0880000000000003e-05,"$VNYMR,+041.580,-006.201,+002.026,+00.0491,+00.0755,-00.2088,-01.929,-01.568,-13.901,+00.354633,-00.462398,+00.195106*63"
1761940426.9202654,1761940426.9199195,-0.00925539375686333,0.006775821941847506,-0.0013114229466560192,-1.886,-2.022,14.243,7.74e-06,5.98e-06,2.15e-05,"$VNYMR,+041.728,-006.915,+002.601,+00.0598,+00.0774,-00.2150,-02.022,-01.886,-14.243,+00.388226,-00.530295,+00.075139*6F"
1761940426.9448967,1761940426.9439769,-0.005156732354649926,-0.00012163199557148483,0.0002797239192171312,-1.907,-2.089,16.577,7.340000000000001e-06,6.460000000000001e-06,2.235e-05,"$VNYMR,+041.721,-007.547,+002.821,+00.0646,+00.0734,-00.2235,-02.089,-01.907,-16.577,-00.006969,-00.295459,-00.016027*6F"
1761940426.9703088,1761940426.9697063,0.0018639243746673443,-6.112143040484142e-05,0.00040732494083043665,-1.307,-1.751,15.949,8.409999999999999e-06,6.18e-06,2.26e-05,"$VNYMR,+041.637,-007.568,+002.787,+00.0618,+00.0841,-00.2260,-01.751,-01.307,-15.949,-00.003502,+00.106795,-00.023338*6B"
1761940426.9945421,1761940426.993944,0.0071050783052362355,-0.0018193661188639291,-0.0005436177021186739,-1.732,-1.478,14.294,8.13e-06,5.500000000000001e-06,2.1740000000000002e-05,"$VNYMR,+041.713,-007.149,+002.701,+00.0550,+00.0813,-00.2174,-01.478,-01.732,-14.294,-00.104242,+00.407091,+00.031147*66"
1761940427.0202763,1761940427.019686,0.007249940633151765,-0.0019094949214369162,-0.00025103070631434443,-1.164,-1.203,13.548,7.75e-06,4.72e-06,2.144e-05,"$VNYMR,+041.755,-006.581,+002.506,+00.0472,+00.0775,-00.2144,-01.203,-01.164,-13.548,-00.109406,+00.415391,+00.014383*65"
1761940427.0445921,1761940427.0438893,0.0053074589888521565,-0.0007671769260066276,-0.0016823403192898544,-1.33,-1.237,13.099,8.050000000000001e-06,3.66e-06,2.0050000000000003e-05,"$VNYMR,+041.890,-006.077,+002.428,+00.0366,+00.0805,-00.2005,-01.237,-01.330,-13.099,-00.043956,+00.304095,+00.096391*6F"
1761940427.0703003,1761940427.069744,0.0034385604258166283,-0.0036133900569889003,-0.0011082666217238793,-1.355,-1.277,12.453,8.36e-06,2.5e-06,1.8890000000000004e-05,"$VNYMR,+042.017,-005.708,+002.275,+00.0250,+00.0836,-00.1889,-01.277,-01.355,-12.453,-00.207032,+00.197015,+00.063499*6A"
1761940427.0944526,1761940427.0938232,0.0017954376548190867,-0.004529077049047725,-0.0033375407687111966,-0.293,-1.374,14.244,7.98e-06,1.33e-06,1.783e-05,"$VNYMR,+042.238,-005.631,+001.769,+00.0133,+00.0798,-00.1783,-01.374,-00.293,-14.244,-00.259497,+00.102871,+00.191227*6A"
1761940427.1245272,1761940427.1239445,0.005100672379075868,0.004490522725871171,-0.0008567472232189764,-1.505,-1.839,13.732,7.7e-06,3.6e-07,1.787e-05,"$VNYMR,+042.449,-005.281,+001.871,+00.0036,+00.0770,-00.1787,-01.839,-01.505,-13.732,+00.257288,+00.292247,+00.049088*6B"
1761940427.1439555,1761940427.1436203,0.00928255108002436,0.0037561056299244768,0.00506309544028043,-1.349,-1.99,12.947,8.010000000000001e-06,-1.0000000000000002e-06,1.6819999999999998e-05,"$VNYMR,+042.247,-004.622,+002.329,-00.0100,+00.0801,-00.1682,-01.990,-01.349,-12.947,+00.215209,+00.531851,-00.290094*65"
1761940427.169832,1761940427.1696172,0.016047377447584305,0.007754532773195846,0.007989960235997361,-0.463,-1.9,13.515,8.8e-06,-2.53e-06,1.591e-05,"$VNYMR,+041.709,-003.533,+002.842,-00.0253,+00.0880,-00.1591,-01.900,-00.463,-13.515,+00.444302,+00.919447,-00.457791*61"
1761940427.1938937,1761940427.193707,0.020182882750307305,0.012693517850366959,0.008619430684021635,0.21,-1.742,11.923,9.3e-06,-3.89e-06,1.619e-05,"$VNYMR,+041.092,-001.941,+003.785,-00.0389,+00.0930,-00.1619,-01.742,+00.210,-11.923,+00.727285,+01.156394,-00.493857*6C"
1761940427.219989,1761940427.2196736,0.02291243807408628,0.009785537517156608,0.007964338802578083,-0.083,-1.12,11.083,1e-05,-5.3400000000000005e-06,1.571e-05,"$VNYMR,+040.563,-000.112,+004.723,-00.0534,+00.1000,-00.1571,-01.120,-00.083,-11.083,+00.560670,+01.312786,-00.456323*60"
1761940427.2439642,1761940427.243712,0.02803749270281251,0.010309450452020264,0.009144949321797128,-1.308,-1.532,10.986,1.031e-05,-7.080000000000001e-06,1.5120000000000001e-05,"$VNYMR,+040.085,+002.061,+005.501,-00.0708,+00.1031,-00.1512,-01.532,-01.308,-10.986,+00.590688,+01.606430,-00.523967*61"
1761940427.2700393,1761940427.269824,0.03175657989930218,0.011506571785963177,0.014608737451750417,-0.752,-0.7,9.611,1.159e-05,-8.03e-06,1.4960000000000002e-05,"$VNYMR,+039.297,+004.624,+006.365,-00.0803,+00.1159,-00.1496,-00.700,-00.752,-09.611,+00.659278,+01.819518,-00.837019*61"
1761940427.295086,1761940427.294044,0.0285938164018857,0.008697324728538142,0.011968647705428674,1.183,0.274,6.106,1.2770000000000001e-05,-9.86e-06,1.527e-05,"$VNYMR,+038.440,+007.324,+007.084,-00.0986,+00.1277,-00.1527,+00.274,+01.183,-06.106,+00.498320,+01.638305,-00.685753*66"
1761940427.3202667,1761940427.3192606,0.0241130675198257,0.009552518608722844,0.008312060749452914,0.226,1.198,6.906,1.171e-05,-1.124e-05,1.51e-05,"$VNYMR,+037.930,+009.457,+007.741,-00.1124,+00.1171,-00.1510,+01.198,+00.226,-06.906,+00.547319,+01.381577,-00.476246*67"
1761940427.3450146,1761940427.344656,0.0259969061012583,0.011795877562773754,0.00888616935360393,-0.549,1.693,5.839,1.23e-05,-1.201e-05,1.525e-05,"$VNYMR,+037.540,+011.601,+008.491,-00.1201,+00.1230,-00.1525,+01.693,-00.549,-05.839,+00.675854,+01.489513,-00.509140*6A"
1761940427.368912,1761940427.3686745,0.019038609986114785,0.007361327546014044,0.00805174489151796,-0.482,2.469,3.131,1.29e-05,-1.2970000000000001e-05,1.563e-05,"$VNYMR,+037.137,+013.540,+009.211,-00.1297,+00.1290,-00.1563,+02.469,-00.482,-03.131,+00.421773,+01.090832,-00.461331*67"
1761940427.3939648,1761940427.3937886,0.012230080574084905,0.008180358204097423,0.008164842227047192,-1.313,2.52,4.577,1.2509999999999999e-05,-1.3850000000000001e-05,1.599e-05,"$VNYMR,+036.688,+014.786,+009.710,-00.1385,+00.1251,-00.1599,+02.520,-01.313,-04.577,+00.468700,+00.700732,-00.467811*61"
1761940427.4199374,1761940427.4196916,0.00869182694139436,0.00894142647772207,0.009240924977364296,-0.174,2.672,4.939,1.281e-05,-1.4530000000000001e-05,1.702e-05,"$VNYMR,+036.035,+015.742,+010.297,-00.1453,+00.1281,-00.1702,+02.672,-00.174,-04.939,+00.512306,+00.498005,-00.529466*63"
1761940427.443986,1761940427.443807,0.008790630030349758,0.007530275417607094,0.0053327662630060745,-0.095,2.672,5.976,1.32e-05,-1.4920000000000001e-05,1.66e-05,"$VNYMR,+035.571,+016.510,+010.851,-00.1492,+00.1320,-00.1660,+02.672,-00.095,-05.976,+00.431453,+00.503666,-00.305545*6A"
1761940427.4691722,1761940427.4689238,0.008965232768719272,0.005298453089911865,0.004110250388446646,-1.056,2.543,5.698,1.3700000000000001e-05,-1.54e-05,1.662e-05,"$VNYMR,+035.349,+017.281,+011.341,-00.1540,+00.1370,-00.1662,+02.543,-01.056,-05.698,+00.303579,+00.513670,-00.235500*61"
1761940427.4947176,1761940427.49392,0.004089742769735713,0.0003947236636310376,0.0032322799615234184,-0.89,2.588,5.319,1.3500000000000001e-05,-1.559e-05,1.6630000000000002e-05,"$VNYMR,+035.148,+017.842,+011.467,-00.1559,+00.1350,-00.1663,+02.588,-00.890,-05.319,+00.022616,+00.234325,-00.185196*69"
1761940427.5201657,1761940427.5191157,0.0007523590806571956,0.00028845056547710285,0.001639963725051432,-0.331,2.744,6.19,1.3600000000000002e-05,-1.5490000000000002e-05,1.674e-05,"$VNYMR,+034.967,+018.056,+011.404,-00.1549,+00.1360,-00.1674,+02.744,-00.331,-06.190,+00.016527,+00.043107,-00.093963*6E"
1761940427.5443835,1761940427.544006,0.0014053914735833938,0.0011117398269353481,-0.00150208271414388,-0.609,2.959,6.387,1.4770000000000001e-05,-1.586e-05,1.654e-05,"$VNYMR,+035.022,+018.108,+011.500,-00.1586,+00.1477,-00.1654,+02.959,-00.609,-06.387,+00.063698,+00.080523,+00.086063*63"
1761940427.5708802,1761940427.5699975,-0.0007509279106705603,-0.0023684292482488247,-0.0035444670048276447,-1.008,3.046,5.269,1.3600000000000002e-05,-1.569e-05,1.719e-05,"$VNYMR,+035.268,+018.106,+011.503,-00.1569,+00.1360,-00.1719,+03.046,-01.008,-05.269,-00.135701,-00.043025,+00.203083*66"
1761940427.5945349,1761940427.5939827,-0.0016595114126737684,-0.002709466584088517,-0.0037601198872040634,-1.571,3.14,5.054,1.389e-05,-1.5490000000000002e-05,1.696e-05,"$VNYMR,+035.565,+017.916,+011.363,-00.1549,+00.1389,-00.1696,+03.140,-01.571,-05.054,-00.155241,-00.095083,+00.215439*6B"
1761940427.6200666,1761940427.6192288,-0.007480952412945735,-0.0025458594200065687,-0.0036724694521689085,-1.789,3.025,3.67,1.379e-05,-1.53e-05,1.662e-05,"$VNYMR,+035.798,+017.477,+011.238,-00.1530,+00.1379,-00.1662,+03.025,-01.789,-03.670,-00.145867,-00.428627,+00.210417*69"
1761940427.645036,1761940427.6443355,-0.012962368368344166,-0.004118907221536538,-0.0022276335374904425,-1.307,2.543,4.271,1.3300000000000001e-05,-1.4920000000000001e-05,1.6819999999999998e-05,"$VNYMR,+035.835,+016.552,+010.979,-00.1492,+00.1330,-00.1682,+02.543,-01.307,-04.271,-00.235996,-00.742689,+00.127634*63"
1761940427.6699944,1761940427.6691904,-0.011821062663880035,-0.008865958440865835,-0.0032821963781304564,-0.685,2.065,4.876,1.32e-05,-1.4230000000000001e-05,1.624e-05,"$VNYMR,+035.864,+015.496,+010.429,-00.1423,+00.1320,-00.1624,+02.065,-00.685,-04.876,-00.507982,-00.677297,+00.188056*68"
1761940427.694853,1761940427.694123,-0.010547094482971812,-0.01783710787574937,-0.006272835504715259,-0.235,2.001,4.866,1.2420000000000001e-05,-1.3860000000000001e-05,1.599e-05,"$VNYMR,+036.073,+014.543,+009.339,-00.1386,+00.1242,-00.1599,+02.001,-00.235,-04.866,-01.021991,-00.604304,+00.359407*64"
1761940427.7241724,1761940427.7235568,-0.009844931071601976,-0.016850996848372574,-0.0059104178855386375,-1.763,1.546,5.202,1.232e-05,-1.3270000000000002e-05,1.53e-05,"$VNYMR,+036.505,+013.659,+007.952,-00.1327,+00.1232,-00.1530,+01.546,-01.763,-05.202,-00.965491,-00.564073,+00.338642*65"
1761940427.744055,1761940427.7438004,-0.014450383728716971,-0.008674408555459458,-0.002305737021517189,-1.654,0.906,4.809,1.202e-05,-1.2590000000000001e-05,1.5160000000000002e-05,"$VNYMR,+036.681,+012.635,+007.016,-00.1259,+00.1202,-00.1516,+00.906,-01.654,-04.809,-00.497007,-00.827946,+00.132109*65"
1761940427.7689774,1761940427.768819,-0.01676791917597764,-0.004896416496714972,-1.58824961931484e-05,-0.329,1.035,7.019,1.143e-05,-1.2120000000000001e-05,1.535e-05,"$VNYMR,+036.567,+011.270,+006.540,-00.1212,+00.1143,-00.1535,+01.035,-00.329,-07.019,-00.280544,-00.960731,+00.000910*65"
1761940427.794093,1761940427.7938943,-0.018455722375826236,-0.0065952327241436525,0.002161555372009937,0.028,1.034,7.795,1.2e-05,-1.113e-05,1.465e-05,"$VNYMR,+036.566,+009.876,+005.769,-00.1113,+00.1200,-00.1465,+01.034,+00.028,-07.795,-00.377879,-01.057435,-00.123848*64"
1761940427.8199978,1761940427.8197446,-0.019785192026947878,0.0038333015427401856,-0.0008011235799579171,-0.417,0.799,8.526,1.092e-05,-1.018e-05,1.4599999999999999e-05,"$VNYMR,+036.513,+008.334,+005.558,-00.1018,+00.1092,-00.1460,+00.799,-00.417,-08.526,+00.219632,-01.133608,+00.045901*6C"
1761940427.8440623,1761940427.8438895,-0.025840838759544967,0.00417973194596854,-0.004115783082175468,0.03,0.089,9.448,1.1010000000000001e-05,-8.82e-06,1.4979999999999999e-05,"$VNYMR,+036.508,+006.360,+006.072,-00.0882,+00.1101,-00.1498,+00.089,+00.030,-09.448,+00.239481,-01.480571,+00.235817*63"
1761940427.8691387,1761940427.868912,-0.02455816138566929,-0.0062701651509597086,-0.006319348529280909,0.493,-0.133,13.361,1.06e-05,-7.270000000000001e-06,1.535e-05,"$VNYMR,+036.674,+004.177,+005.901,-00.0727,+00.1060,-00.1535,-00.133,+00.493,-13.361,-00.359254,-01.407079,+00.362072*6A"
1761940427.8942776,1761940427.894028,-0.014433715834360426,-0.0066985387625691966,-0.009219771586830126,-0.72,-0.083,13.56,1.0100000000000002e-05,-5.82e-06,1.6170000000000003e-05,"$VNYMR,+037.225,+002.609,+005.310,-00.0582,+00.1010,-00.1617,-00.083,-00.720,-13.560,-00.383798,-00.826991,+00.528254*6D"
1761940427.920078,1761940427.9191203,-0.01707021020242306,-0.007600245667319548,-0.011237215122502892,-1.01,-0.334,10.825,9.790000000000001e-06,-4.17e-06,1.5320000000000002e-05,"$VNYMR,+037.928,+001.306,+004.906,-00.0417,+00.0979,-00.1532,-00.334,-01.010,-10.825,-00.435462,-00.978051,+00.643845*62"
1761940427.944965,1761940427.944279,-0.01583022358205117,-0.012594226069221002,-0.007986487030785892,-0.641,-0.963,13.618,9.39e-06,-2.43e-06,1.624e-05,"$VNYMR,+038.588,-000.170,+004.017,-00.0243,+00.0939,-00.1624,-00.963,-00.641,-13.618,-00.721596,-00.907005,+00.457592*6C"
1761940427.969998,1761940427.9690976,-0.010969307082321762,-0.009148038554573159,-0.008026367804193963,-0.598,-1.315,14.943,8.79e-06,-8.900000000000001e-07,1.683e-05,"$VNYMR,+039.210,-001.265,+003.124,-00.0089,+00.0879,-00.1683,-01.315,-00.598,-14.943,-00.524144,-00.628495,+00.459877*67"
1761940427.994581,1761940427.9939432,-0.007144208587065949,-0.006210021104935984,-0.002045229177364515,-1.191,-1.087,16.013,8.580000000000001e-06,4.7000000000000005e-07,1.765e-05,"$VNYMR,+039.750,-002.096,+002.468,+00.0047,+00.0858,-00.1765,-01.087,-01.191,-16.013,-00.355808,-00.409333,+00.117183*65"
1761940428.0195975,1761940428.0189664,-0.0052077308753932005,0.004060368878424648,-0.0010639527120157432,-0.902,-0.911,14.072,8.27e-06,1.8100000000000002e-06,1.991e-05,"$VNYMR,+039.879,-002.505,+002.490,+00.0181,+00.0827,-00.1991,-00.911,-00.902,-14.072,+00.232642,-00.298381,+00.060960*6B"
1761940428.0444908,1761940428.0439653,-0.00970197115257112,0.002244057085751709,-0.0007372096227498848,-1.341,-1.214,13.525,7.870000000000001e-06,2.88e-06,1.931e-05,"$VNYMR,+039.933,-003.086,+002.766,+00.0288,+00.0787,-00.1931,-01.214,-01.341,-13.525,+00.128575,-00.555882,+00.042239*61"
1761940428.0692196,1761940428.0689723,-0.009112730543805313,0.003521707911381638,-0.0009764069967357077,-1.556,-1.1,15.563,8.350000000000001e-06,3.3700000000000003e-06,2.084e-05,"$VNYMR,+039.948,-003.905,+002.995,+00.0337,+00.0835,-00.2084,-01.100,-01.556,-15.563,+00.201779,-00.522121,+00.055944*69"
1761940428.0949159,1761940428.0941133,-0.0050228481477294406,0.0024736202422665234,0.00046195374641785913,-2.08,-1.182,15.882,8.24e-06,4.14e-06,2.07e-05,"$VNYMR,+039.941,-004.475,+003.289,+00.0414,+00.0824,-00.2070,-01.182,-02.080,-15.882,+00.141728,-00.287788,-00.026468*6D"
1761940428.1195447,1761940428.118956,0.0011257373675363426,0.0006269920804864429,0.0008657182155742273,-1.499,-1.074,15.792,8.050000000000001e-06,4.14e-06,2.08e-05,"$VNYMR,+039.858,-004.591,+003.371,+00.0414,+00.0805,-00.2080,-01.074,-01.499,-15.792,+00.035924,+00.064500,-00.049602*60"
1761940428.1449866,1761940428.1441002,0.0042323536229161695,-9.904743505067821e-05,0.0017090089502603276,-2.128,-0.916,14.473,8.64e-06,3.86e-06,2.0490000000000002e-05,"$VNYMR,+039.814,-004.310,+003.453,+00.0386,+00.0864,-00.2049,-00.916,-02.128,-14.473,-00.005675,+00.242496,-00.097919*63"
1761940428.1693473,1761940428.1690361,0.006527129976730834,-0.004961168211963961,0.003488162683158307,-1.301,-0.485,13.718,8.65e-06,2.69e-06,1.999e-05,"$VNYMR,+039.604,-003.813,+003.230,+00.0269,+00.0865,-00.1999,-00.485,-01.301,-13.718,-00.284254,+00.373977,-00.199857*6B"
1761940428.1953573,1761940428.1943173,0.0052766713808469765,-0.006831969183884163,0.0013473418226620626,-0.0,-0.37,12.676,8.27e-06,1.72e-06,1.9810000000000002e-05,"$VNYMR,+039.429,-003.291,+002.720,+00.0172,+00.0827,-00.1981,-00.370,-00.000,-12.676,-00.391443,+00.302331,-00.077197*6C"
1761940428.2204106,1761940428.2192917,0.002971649944323105,-0.0040073806823341,-0.0036395001825987356,0.273,-0.035,14.057,8.18e-06,7.5e-07,1.841e-05,"$VNYMR,+039.570,-003.043,+002.227,+00.0075,+00.0818,-00.1841,-00.035,+00.273,-14.057,-00.229606,+00.170263,+00.208528*64"
1761940428.2445226,1761940428.2439623,0.005528365312277079,0.0021738773965290174,-0.0041382803762336755,-1.797,-0.613,14.029,8.190000000000001e-06,-3.2e-07,1.757e-05,"$VNYMR,+039.991,-002.680,+002.193,-00.0032,+00.0819,-00.1757,-00.613,-01.797,-14.029,+00.124554,+00.316752,+00.237106*61"
1761940428.269652,1761940428.2690217,0.009214971931387142,0.0030494392690844922,0.0033724648070436033,-2.356,-1.036,14.136,8.599999999999999e-06,-1.37e-06,1.674e-05,"$VNYMR,+039.975,-002.073,+002.501,-00.0137,+00.0860,-00.1674,-01.036,-02.356,-14.136,+00.174720,+00.527979,-00.193228*62"
1761940428.2948272,1761940428.2941036,0.011901365262764294,-0.003990468441882275,0.007416357777329425,-1.097,-1.141,11.503,8.22e-06,-2.54e-06,1.601e-05,"$VNYMR,+039.508,-001.069,+002.521,-00.0254,+00.0822,-00.1601,-01.141,-01.097,-11.503,-00.228637,+00.681898,-00.424926*61"
1761940428.3258097,1761940428.3251424,0.007048948516492098,-0.004231620584630332,0.004811698214823167,0.628,-0.88,10.74,8.43e-06,-3.8e-06,1.518e-05,"$VNYMR,+038.959,-000.302,+002.169,-00.0380,+00.0843,-00.1518,-00.880,+00.628,-10.740,-00.242454,+00.403875,-00.275690*6F"
1761940428.3441515,1761940428.3438895,0.002260934419618494,0.006739711079623742,0.0035148313141287807,-0.904,-1.062,12.15,1.0100000000000002e-05,-4.94e-06,1.4810000000000002e-05,"$VNYMR,+038.723,-000.070,+002.383,-00.0494,+00.1010,-00.1481,-01.062,-00.904,-12.150,+00.386157,+00.129542,-00.201385*68"
1761940428.3692272,1761940428.3690066,0.011066923347385803,0.00570031515018356,0.010697873477051603,-0.633,-1.065,12.074,9.420000000000001e-06,-5.53e-06,1.449e-05,"$VNYMR,+038.133,+000.557,+002.982,-00.0553,+00.0942,-00.1449,-01.065,-00.633,-12.074,+00.326604,+00.634088,-00.612943*6D"
1761940428.394157,1761940428.3939402,0.016498806858612637,0.0016713621982948098,0.008596060725337432,1.247,-0.317,11.656,1.011e-05,-6.98e-06,1.4560000000000001e-05,"$VNYMR,+037.339,+001.804,+003.145,-00.0698,+00.1011,-00.1456,-00.317,+01.247,-11.656,+00.095762,+00.945312,-00.492518*6F"
1761940428.4191475,1761940428.4189658,0.022314627898693182,0.008056841252933784,0.006763953702933944,-0.032,-0.182,10.323,1.003e-05,-8.44e-06,1.396e-05,"$VNYMR,+036.883,+003.492,+003.556,-00.0844,+00.1003,-00.1396,-00.182,-00.032,-10.323,+00.461623,+01.278534,-00.387546*6E"
1761940428.4442272,1761940428.4440095,0.02104125312973064,0.007734391673627832,0.006439339915355519,0.109,-0.415,9.433,1.0140000000000001e-05,-9.31e-06,1.444e-05,"$VNYMR,+036.460,+005.296,+004.191,-00.0931,+00.1014,-00.1444,-00.415,+00.109,-09.433,+00.443148,+01.205575,-00.368947*6D"
1761940428.470043,1761940428.4690714,0.021436640018477435,0.013524800719799338,0.00789471761871603,-0.728,-0.8,11.094,1.073e-05,-1.057e-05,1.4280000000000002e-05,"$VNYMR,+036.038,+007.044,+004.958,-00.1057,+00.1073,-00.1428,-00.800,-00.728,-11.094,+00.774914,+01.228229,-00.452334*69"
1761940428.4946098,1761940428.4940565,0.029826629719031893,0.010367622275989237,0.011624695669738153,0.406,0.212,9.05,1.143e-05,-1.1920000000000001e-05,1.5120000000000001e-05,"$VNYMR,+035.373,+009.276,+005.913,-00.1192,+00.1143,-00.1512,+00.212,+00.406,-09.050,+00.594021,+01.708940,-00.666046*63"
1761940428.5202417,1761940428.5194497,0.028031576036648246,0.006016795703447692,0.0032804161422934222,1.232,1.288,7.944,1.183e-05,-1.3180000000000001e-05,1.485e-05,"$VNYMR,+035.003,+011.698,+006.455,-00.1318,+00.1183,-00.1485,+01.288,+01.232,-07.944,+00.344737,+01.606091,-00.187954*66"
1761940428.5454235,1761940428.5441558,0.02977931384301033,0.013108661866246332,0.002219866822319068,-0.688,1.392,5.715,1.2230000000000001e-05,-1.415e-05,1.545e-05,"$VNYMR,+035.113,+014.129,+007.334,-00.1415,+00.1223,-00.1545,+01.392,-00.688,-05.715,+00.751071,+01.706229,-00.127189*66"
1761940428.5695827,1761940428.5690315,0.02165314811218733,0.013830076259265668,0.005969026041820607,-1.227,2.206,4.195,1.253e-05,-1.5220000000000002e-05,1.6270000000000002e-05,"$VNYMR,+035.047,+016.182,+008.473,-00.1522,+00.1253,-00.1627,+02.206,-01.227,-04.195,+00.792405,+01.240634,-00.342000*6D"
1761940428.5948894,1761940428.59417,0.018189123332584104,0.010849856748315269,0.005808909536242648,-0.098,3.071,4.006,1.2720000000000002e-05,-1.56e-05,1.607e-05,"$VNYMR,+034.757,+017.840,+009.373,-00.1560,+00.1272,-00.1607,+03.071,-00.098,-04.006,+00.621651,+01.042160,-00.332826*65"
1761940428.6196575,1761940428.6190662,0.015496377002729694,0.009590619146293881,0.002066225488266007,-0.156,3.427,3.353,1.361e-05,-1.6470000000000003e-05,1.722e-05,"$VNYMR,+034.701,+019.229,+010.213,-00.1647,+00.1361,-00.1722,+03.427,-00.156,-03.353,+00.549502,+00.887877,-00.118386*6D"
1761940428.6445694,1761940428.644034,0.010198377698423345,0.0071829374431677025,0.0011785859372867309,-0.842,3.435,2.577,1.3420000000000002e-05,-1.666e-05,1.6780000000000002e-05,"$VNYMR,+034.793,+020.284,+010.878,-00.1666,+00.1342,-00.1678,+03.435,-00.842,-02.577,+00.411552,+00.584324,-00.067528*6F"
1761940428.670212,1761940428.6693776,0.0038638971645276465,0.006539888333562912,0.0021024061636598494,-1.179,3.429,2.958,1.381e-05,-1.725e-05,1.803e-05,"$VNYMR,+034.753,+020.819,+011.432,-00.1725,+00.1381,-00.1803,+03.429,-01.179,-02.958,+00.374708,+00.221385,-00.120459*66"
1761940428.6944404,1761940428.6941824,0.0008981987929538418,0.0019390607989657003,0.001118843316990965,-0.07,3.62,3.09,1.488e-05,-1.674e-05,1.747e-05,"$VNYMR,+034.622,+021.010,+011.719,-00.1674,+00.1488,-00.1747,+03.620,-00.070,-03.090,+00.111100,+00.051463,-00.064105*69"
1761940428.7190948,1761940428.7189407,-0.002245017016840306,-0.004377058871199019,-0.004070875760521654,0.213,3.465,3.121,1.4099999999999999e-05,-1.7140000000000002e-05,1.759e-05,"$VNYMR,+034.775,+020.900,+011.641,-00.1714,+00.1410,-00.1759,+03.465,+00.213,-03.121,-00.250787,-00.128630,+00.233244*6B"
1761940428.744165,1761940428.7439888,-0.004264746933833184,-0.006708330059672885,-0.006237352961022216,-0.555,3.211,3.642,1.331e-05,-1.6470000000000003e-05,1.7330000000000002e-05,"$VNYMR,+035.190,+020.515,+011.255,-00.1647,+00.1331,-00.1733,+03.211,-00.555,-03.642,-00.384359,-00.244352,+00.357374*63"
1761940428.769181,1761940428.7689836,-0.00977845148039351,-0.001410592554754337,-0.006044476625384322,-1.712,2.687,3.909,1.361e-05,-1.637e-05,1.699e-05,"$VNYMR,+035.612,+019.800,+011.091,-00.1637,+00.1361,-00.1699,+02.687,-01.712,-03.909,-00.080821,-00.560264,+00.346323*6A"
1761940428.7943218,1761940428.7940922,-0.014228377847863294,0.00045944047229498733,-0.0041186803287337785,-1.236,2.324,3.698,1.3700000000000001e-05,-1.6080000000000002e-05,1.742e-05,"$VNYMR,+035.812,+018.720,+011.173,-00.1608,+00.1370,-00.1742,+02.324,-01.236,-03.698,+00.026324,-00.815226,+00.235983*6E"
1761940428.8192225,1761940428.8190033,-0.017014080413678922,-0.007487479944348194,-0.006631954451605614,-0.1,2.18,4.821,1.3600000000000002e-05,-1.54e-05,1.6400000000000002e-05,"$VNYMR,+035.991,+017.316,+010.890,-00.1540,+00.1360,-00.1640,+02.180,-00.100,-04.821,-00.429001,-00.974835,+00.379983*6C"
1761940428.8442857,1761940428.8440332,-0.015178901611791924,-0.012721687464494147,-0.008616428717708206,-0.683,2.204,6.924,1.3300000000000001e-05,-1.462e-05,1.636e-05,"$VNYMR,+036.424,+015.875,+010.112,-00.1462,+00.1330,-00.1636,+02.204,-00.683,-06.924,-00.728899,-00.869687,+00.493685*68"
1761940428.8711135,1761940428.8693912,-0.009872978512681523,-0.0131981623502886,-0.009288118680338225,-0.644,2.689,8.839,1.271e-05,-1.3950000000000002e-05,1.611e-05,"$VNYMR,+036.995,+014.727,+009.142,-00.1395,+00.1271,-00.1611,+02.689,-00.644,-08.839,-00.756199,-00.565680,+00.532170*6D"
1761940428.9035807,1761940428.9032946,-0.00027440066499854847,-0.01133921216398944,-0.010592839562666585,-1.193,1.916,8.419,1.2410000000000001e-05,-1.3270000000000002e-05,1.563e-05,"$VNYMR,+037.801,+014.285,+008.384,-00.1327,+00.1241,-00.1563,+01.916,-01.193,-08.419,-00.649689,-00.015722,+00.606925*6E"
1761940428.9191968,1761940428.9188871,0.0009279566567003451,-0.016791777826852403,-0.007358953898231331,-1.2,1.08,6.02,1.2120000000000001e-05,-1.2980000000000001e-05,1.573e-05,"$VNYMR,+038.539,+014.338,+007.418,-00.1298,+00.1212,-00.1573,+01.080,-01.200,-06.020,-00.962098,+00.053168,+00.421637*67"
1761940428.9445302,1761940428.94401,-0.007303958573500991,-0.02198800698247496,-0.010620921910331173,-0.591,1.493,6.491,1.153e-05,-1.231e-05,1.4810000000000002e-05,"$VNYMR,+039.163,+013.915,+005.994,-00.1231,+00.1153,-00.1481,+01.493,-00.591,-06.491,-01.259820,-00.418486,+00.608534*63"
1761940428.9691434,1761940428.9689703,-0.008887775056515765,-0.005353448414642207,-0.006475171524898963,0.967,1.754,7.85,1.074e-05,-1.1540000000000001e-05,1.4210000000000001e-05,"$VNYMR,+039.593,+013.201,+005.172,-00.1154,+00.1074,-00.1421,+01.754,+00.967,-07.850,-00.306730,-00.509232,+00.371000*66"
1761940428.9941788,1761940428.99399,-0.01565518451136866,-0.00038749800052778106,-0.010374743219337373,1.519,0.916,8.252,1.0340000000000001e-05,-1.057e-05,1.45e-05,"$VNYMR,+040.207,+012.080,+005.089,-00.1057,+00.1034,-00.1450,+00.916,+01.519,-08.252,-00.022202,-00.896976,+00.594429*64"
1761940429.0192173,1761940429.0190217,-0.02651579248787621,-0.0002618342943841893,-0.013972093700500446,-1.815,0.11,9.966,9.940000000000001e-06,-9.410000000000001e-06,1.4330000000000002e-05,"$VNYMR,+041.225,+010.151,+005.235,-00.0941,+00.0994,-00.1433,+00.110,-01.815,-09.966,-00.015002,-01.519243,+00.800542*6F"
1761940429.0442832,1761940429.0440662,-0.0223406333045479,-0.01015706575502864,-0.006860871836297189,-2.314,0.511,12.536,9.630000000000001e-06,-7.670000000000001e-06,1.4920000000000001e-05,"$VNYMR,+041.833,+008.009,+004.933,-00.0767,+00.0963,-00.1492,+00.511,-02.314,-12.536,-00.581957,-01.280024,+00.393099*6A"
1761940429.069384,1761940429.069167,-0.016839617301649568,-0.015594761212664614,-0.0028373643116746615,-0.483,0.806,11.655,8.840000000000002e-06,-6.320000000000001e-06,1.43e-05,"$VNYMR,+042.016,+006.512,+003.761,-00.0632,+00.0884,-00.1430,+00.806,-00.483,-11.655,-00.893514,-00.964839,+00.162569*6A"
1761940429.0953438,1761940429.0942805,-0.019287738283544454,-0.010436196262300093,-0.00855686063033764,-0.36,0.171,11.65,9.12e-06,-5.050000000000001e-06,1.48e-05,"$VNYMR,+042.454,+004.963,+002.875,-00.0505,+00.0912,-00.1480,+00.171,-00.360,-11.650,-00.597950,-01.105106,+00.490272*64"
1761940429.1202376,1761940429.1192005,-0.021242297606267863,-0.012286768868189682,-0.004138699255254154,-0.837,-0.339,12.302,8.42e-06,-2.93e-06,1.4920000000000001e-05,"$VNYMR,+042.896,+003.293,+001.979,-00.0293,+00.0842,-00.1492,-00.339,-00.837,-12.302,-00.703980,-01.217094,+00.237130*62"
1761940429.144821,1761940429.1441762,-0.014697225644826529,-0.018725881890742438,0.00010156070917355004,-0.212,-0.344,14.042,7.520000000000001e-06,-1.0900000000000002e-06,1.4940000000000001e-05,"$VNYMR,+042.972,+001.813,+000.639,-00.0109,+00.0752,-00.1494,-00.344,-00.212,-14.042,-01.072914,-00.842089,-00.005819*60"
1761940429.1701005,1761940429.169301,-0.013149851636593397,-0.013786861906986287,-0.005019270222762853,1.93,-2.19,13.775,7.22e-06,2.6e-07,1.599e-05,"$VNYMR,+043.027,+000.764,-000.855,+00.0026,+00.0722,-00.1599,-02.190,+01.930,-13.775,-00.789929,-00.753431,+00.287583*60"
1761940429.1942954,1761940429.1940632,-0.015724596255720473,-0.004661669712321735,-0.0010806031530797692,0.66,-0.904,13.016,6.4199999999999995e-06,1.9e-06,1.646e-05,"$VNYMR,+043.134,-000.286,-001.821,+00.0190,+00.0642,-00.1646,-00.904,+00.660,-13.016,-00.267094,-00.900953,+00.061914*69"
1761940429.219306,1761940429.2190866,-0.01866263115865017,0.00344716489902896,-0.0006014753668222858,0.031,-1.185,16.511,7.180000000000001e-06,3.5600000000000002e-06,1.795e-05,"$VNYMR,+043.244,-001.862,-001.764,+00.0356,+00.0718,-00.1795,-01.185,+00.031,-16.511,+00.197508,-01.069290,+00.034462*6B"
1761940429.246356,1761940429.2461395,-0.012455175687714613,0.0008977973672258831,0.0015701505549716587,-0.427,-1.097,17.677,7.17e-06,4.81e-06,1.944e-05,"$VNYMR,+043.224,-003.105,-001.567,+00.0481,+00.0717,-00.1944,-01.097,-00.427,-17.677,+00.051440,-00.713629,-00.089963*64"
1761940429.2710924,1761940429.2694578,-0.003952996222841957,0.000604494786428236,0.0021147281881789292,-0.597,-1.059,16.69,6.7699999999999996e-06,5.29e-06,1.93e-05,"$VNYMR,+043.075,-003.662,-001.557,+00.0529,+00.0677,-00.1930,-01.059,-00.597,-16.690,+00.034635,-00.226490,-00.121165*6D"
1761940429.2955298,1761940429.294291,-0.0013448809084167506,0.0026075044491870084,0.0009876469171185513,-0.519,-0.83,16.079,7.75e-06,5.410000000000001e-06,1.9200000000000003e-05,"$VNYMR,+042.967,-003.893,-001.384,+00.0541,+00.0775,-00.1920,-00.830,-00.519,-16.079,+00.149399,-00.077056,-00.056588*65"
1761940429.3202858,1761940429.319969,0.0011873649434242623,0.0019311020975766062,0.0006791076119509937,-0.491,-0.461,14.76,7.17e-06,4.9100000000000004e-06,1.944e-05,"$VNYMR,+042.903,-003.834,-001.117,+00.0491,+00.0717,-00.1944,-00.461,-00.491,-14.760,+00.110644,+00.068031,-00.038910*69"
1761940429.3448231,1761940429.3441217,0.003492735445798532,-0.0014823255870113042,-0.0003925245487735247,-0.054,-0.205,14.281,7.180000000000001e-06,3.9399999999999995e-06,1.915e-05,"$VNYMR,+042.875,-003.632,-001.118,+00.0394,+00.0718,-00.1915,-00.205,-00.054,-14.281,-00.084931,+00.200119,+00.022490*6C"
1761940429.370413,1761940429.369517,0.003991009493950394,-0.0005518556561880871,-0.0009302953978980175,0.005,-0.333,13.588,7.870000000000001e-06,3.08e-06,1.797e-05,"$VNYMR,+042.939,-003.318,-001.236,+00.0308,+00.0787,-00.1797,-00.333,+00.005,-13.588,-00.031619,+00.228668,+00.053302*65"
1761940429.3943236,1761940429.3941157,0.002047445745514548,0.001651587617869714,-0.0019617675325341462,0.064,-0.468,13.986,6.900000000000001e-06,2.29e-06,1.7670000000000002e-05,"$VNYMR,+043.070,-003.098,-001.258,+00.0229,+00.0690,-00.1767,-00.468,+00.064,-13.986,+00.094629,+00.117310,+00.112401*6A"
1761940429.4192605,1761940429.4190965,0.0026794818275392546,0.004694708795061986,-0.0023186350046894267,-0.754,-0.866,13.958,7.89e-06,8.500000000000001e-07,1.6850000000000003e-05,"$VNYMR,+043.257,-002.876,-000.942,+00.0085,+00.0789,-00.1685,-00.866,-00.754,-13.958,+00.268987,+00.153523,+00.132848*69"
1761940429.4442925,1761940429.444108,0.005176716374585261,0.008980748745769502,0.0034726292528155576,-0.38,-1.031,13.489,7.0300000000000005e-06,-6.2e-07,1.591e-05,"$VNYMR,+043.140,-002.506,-000.375,-00.0062,+00.0703,-00.1591,-01.031,-00.380,-13.489,+00.514559,+00.296604,-00.198967*61"
1761940429.469334,1761940429.4691572,0.009971100923228645,0.006117780453968083,0.005086360679209515,-0.742,-1.3,13.771,7.330000000000001e-06,-1.7800000000000001e-06,1.63e-05,"$VNYMR,+042.864,-001.934,+000.129,-00.0178,+00.0733,-00.1630,-01.300,-00.742,-13.771,+00.350523,+00.571302,-00.291427*67"
1761940429.4943314,1761940429.4941292,0.010264036984883373,0.008592238454275564,0.008583319821797874,-0.096,-1.531,11.621,8.22e-06,-2.83e-06,1.525e-05,"$VNYMR,+042.258,-000.972,+000.757,-00.0283,+00.0822,-00.1525,-01.531,-00.096,-11.621,+00.492299,+00.588086,-00.491788*6B"
1761940429.5205562,1761940429.520207,0.008748375609158978,0.013531607503882116,0.008934008828401094,-0.183,-1.575,11.586,8.720000000000001e-06,-4.38e-06,1.51e-05,"$VNYMR,+041.577,-000.241,+001.724,-00.0438,+00.0872,-00.1510,-01.575,-00.183,-11.586,+00.775304,+00.501245,-00.511881*6E"
1761940429.5446994,1761940429.544165,0.013301433482129105,0.015573293662865082,0.01044944331132273,0.402,-1.114,13.211,9.220000000000002e-06,-5.64e-06,1.4940000000000001e-05,"$VNYMR,+040.763,+000.617,+002.933,-00.0564,+00.0922,-00.1494,-01.114,+00.402,-13.211,+00.892284,+00.762116,-00.598709*62"
1761940429.5694687,1761940429.5691013,0.023066637913499978,0.010213422436575538,0.01020658074590772,0.197,-0.702,10.323,9.53e-06,-6.990000000000001e-06,1.434e-05,"$VNYMR,+040.040,+002.354,+003.993,-00.0699,+00.0953,-00.1434,-00.702,+00.197,-10.323,+00.585186,+01.321621,-00.584794*6A"
1761940429.5942953,1761940429.59413,0.026431353458664725,0.013113129909131436,0.011405587035442784,-0.965,-0.71,11.069,1.042e-05,-8.24e-06,1.4069999999999999e-05,"$VNYMR,+039.342,+004.439,+004.786,-00.0824,+00.1042,-00.1407,-00.710,-00.965,-11.069,+00.751327,+01.514405,-00.653492*64"
1761940429.619292,1761940429.619111,0.028443403926948833,0.022638438834815693,0.0146264874502432,0.157,-0.086,9.167,1.092e-05,-9.790000000000001e-06,1.447e-05,"$VNYMR,+038.430,+006.839,+006.274,-00.0979,+00.1092,-00.1447,-00.086,+00.157,-09.167,+01.297087,+01.629687,-00.838036*69"
1761940429.6443105,1761940429.6441324,0.025814693727350093,0.010288000355513255,0.011207579431804027,1.305,0.774,7.106,1.151e-05,-1.1050000000000001e-05,1.553e-05,"$VNYMR,+037.635,+009.216,+007.567,-00.1105,+00.1151,-00.1553,+00.774,+01.305,-07.106,+00.589459,+01.479073,-00.642147*64"
1761940429.6692877,1761940429.669114,0.03190753342630718,0.005557547217370423,0.005022795787851882,0.738,1.209,8.11,1.1920000000000001e-05,-1.221e-05,1.5470000000000003e-05,"$VNYMR,+037.360,+011.629,+007.930,-00.1221,+00.1192,-00.1547,+01.209,+00.738,-08.110,+00.318424,+01.828167,-00.287785*61"
1761940429.6942677,1761940429.6941068,0.026763925947632248,0.01125931099083314,0.0017703747267604482,-0.729,1.536,5.354,1.2410000000000001e-05,-1.3370000000000002e-05,1.5640000000000003e-05,"$VNYMR,+037.497,+014.045,+008.681,-00.1337,+00.1241,-00.1564,+01.536,-00.729,-05.354,+00.645111,+01.533460,-00.101435*6B"
1761940429.7192986,1761940429.7191527,0.022779443985084313,0.011627016957643304,0.005362611393215177,-0.823,2.168,4.363,1.281e-05,-1.4240000000000001e-05,1.6780000000000002e-05,"$VNYMR,+037.481,+016.031,+009.689,-00.1424,+00.1281,-00.1678,+02.168,-00.823,-04.363,+00.666179,+01.305166,-00.307255*64"
