t,frame_id,gyro_x,gyro_y,gyro_z,acc_x,acc_y,acc_z,mag_x,mag_y,mag_z,raw_vnymr
1763590172.7504675,imu1_Frame,0.037773,0.029186,-0.272747,0.558,0.25,-10.355,2.653e-05,-7.91e-06,3.5770000000000005e-05,"$VNYMR,+066.172,+003.948,+002.132,+00.2653,-00.0791,+00.3577,+00.558,+00.250,-10.355,+00.037773,+00.029186,-00.272747*6E
"
1763590172.770655,imu1_Frame,0.042078,-0.003052,-0.280091,0.882,0.186,-9.447,2.6300000000000002e-05,-8.02e-06,3.563e-05,"$VNYMR,+065.775,+003.952,+002.173,+00.2630,-00.0802,+00.3563,+00.882,+00.186,-09.447,+00.042078,-00.003052,-00.280091*60
"
1763590172.8010173,imu1_Frame,0.032894,0.011598,-0.273002,0.679,0.259,-9.63,2.7000000000000002e-05,-7.8e-06,3.5520000000000006e-05,"$VNYMR,+065.382,+003.959,+002.203,+00.2700,-00.0780,+00.3552,+00.679,+00.259,-09.630,+00.032894,+00.011598,-00.273002*62
"
1763590172.8204274,imu1_Frame,0.034959,-0.030722,-0.267507,0.779,0.439,-9.539,2.642e-05,-7.670000000000001e-06,3.642000000000001e-05,"$VNYMR,+064.988,+003.963,+002.225,+00.2642,-00.0767,+00.3642,+00.779,+00.439,-09.539,+00.034959,-00.030722,-00.267507*6C
"
1763590172.851152,imu1_Frame,0.02996,-0.041567,-0.270856,0.784,0.531,-9.141,2.8170000000000003e-05,-7.6e-06,3.596e-05,"$VNYMR,+064.590,+003.966,+002.239,+00.2817,-00.0760,+00.3596,+00.784,+00.531,-09.141,+00.029960,-00.041567,-00.270856*6E
"
1763590172.8714254,imu1_Frame,0.021919,-0.014426,-0.276056,0.892,0.762,-9.418,2.6540000000000003e-05,-7.31e-06,3.655e-05,"$VNYMR,+064.193,+003.975,+002.243,+00.2654,-00.0731,+00.3655,+00.892,+00.762,-09.418,+00.021919,-00.014426,-00.276056*6E
"
1763590172.9012175,imu1_Frame,0.022953,-0.029206,-0.28065,0.826,0.949,-9.316,2.701e-05,-7.2e-06,3.591e-05,"$VNYMR,+063.792,+003.981,+002.239,+00.2701,-00.0720,+00.3591,+00.826,+00.949,-09.316,+00.022953,-00.029206,-00.280650*6D
"
1763590172.921009,imu1_Frame,0.014528,0.007526,-0.278856,1.003,0.792,-9.254,2.724e-05,-7.57e-06,3.6320000000000005e-05,"$VNYMR,+063.388,+003.992,+002.230,+00.2724,-00.0757,+00.3632,+01.003,+00.792,-09.254,+00.014528,+00.007526,-00.278856*60
"
1763590172.9508853,imu1_Frame,0.023266,0.027534,-0.283641,0.846,1.051,-9.818,2.7470000000000003e-05,-7.330000000000001e-06,3.567e-05,"$VNYMR,+062.983,+004.007,+002.227,+00.2747,-00.0733,+00.3567,+00.846,+01.051,-09.818,+00.023266,+00.027534,-00.283641*67
"
1763590172.9704995,imu1_Frame,0.030151,0.014954,-0.278378,0.795,1.142,-9.819,2.759e-05,-6.5000000000000004e-06,3.58e-05,"$VNYMR,+062.583,+004.018,+002.238,+00.2759,-00.0650,+00.3580,+00.795,+01.142,-09.819,+00.030151,+00.014954,-00.278378*6E
"
1763590173.00055,imu1_Frame,0.035917,0.037338,-0.277922,0.492,0.693,-9.901,2.701e-05,-7.32e-06,3.539e-05,"$VNYMR,+062.176,+004.027,+002.264,+00.2701,-00.0732,+00.3539,+00.492,+00.693,-09.901,+00.035917,+00.037338,-00.277922*6D
"
1763590173.0205288,imu1_Frame,0.040902,0.024522,-0.279225,0.103,0.515,-10.165,2.8050000000000004e-05,-7.71e-06,3.53e-05,"$VNYMR,+061.773,+004.044,+002.296,+00.2805,-00.0771,+00.3530,+00.103,+00.515,-10.165,+00.040902,+00.024522,-00.279225*69
"
1763590173.0509493,imu1_Frame,0.040983,0.02061,-0.2815,0.668,0.626,-9.728,2.8170000000000003e-05,-7.4700000000000005e-06,3.439e-05,"$VNYMR,+061.373,+004.073,+002.325,+00.2817,-00.0747,+00.3439,+00.668,+00.626,-09.728,+00.040983,+00.020610,-00.281500*68
"
1763590173.0706627,imu1_Frame,0.039068,0.00074,-0.282445,0.578,0.53,-9.683,2.828e-05,-7.480000000000001e-06,3.5310000000000006e-05,"$VNYMR,+060.970,+004.090,+002.345,+00.2828,-00.0748,+00.3531,+00.578,+00.530,-09.683,+00.039068,+00.000740,-00.282445*60
"
1763590173.101149,imu1_Frame,0.032762,-0.029051,-0.273473,0.911,0.687,-9.411,2.84e-05,-7.36e-06,3.5310000000000006e-05,"$VNYMR,+060.570,+004.107,+002.355,+00.2840,-00.0736,+00.3531,+00.911,+00.687,-09.411,+00.032762,-00.029051,-00.273473*67
"
1763590173.1205745,imu1_Frame,0.03696,-0.026699,-0.279502,1.13,0.88,-9.476,2.922e-05,-7.3800000000000005e-06,3.509e-05,"$VNYMR,+060.170,+004.132,+002.365,+00.2922,-00.0738,+00.3509,+01.130,+00.880,-09.476,+00.036960,-00.026699,-00.279502*6C
"
1763590173.1508405,imu1_Frame,0.034822,-0.024998,-0.280563,1.238,0.768,-9.304,2.8870000000000003e-05,-7.610000000000001e-06,3.429e-05,"$VNYMR,+059.766,+004.144,+002.379,+00.2887,-00.0761,+00.3429,+01.238,+00.768,-09.304,+00.034822,-00.024998,-00.280563*62
"
1763590173.1706424,imu1_Frame,0.040104,-0.027685,-0.281249,1.524,0.623,-9.515,2.9210000000000003e-05,-7.74e-06,3.4960000000000004e-05,"$VNYMR,+059.363,+004.159,+002.398,+00.2921,-00.0774,+00.3496,+01.524,+00.623,-09.515,+00.040104,-00.027685,-00.281249*6F
"
1763590173.2009258,imu1_Frame,0.036425,-0.002652,-0.285431,1.271,0.579,-10.011,2.794e-05,-7.4700000000000005e-06,3.5430000000000005e-05,"$VNYMR,+058.958,+004.171,+002.421,+00.2794,-00.0747,+00.3543,+01.271,+00.579,-10.011,+00.036425,-00.002652,-00.285431*6F
"
1763590173.220914,imu1_Frame,0.035105,0.017797,-0.294198,1.269,0.509,-9.788,2.9559999999999998e-05,-7.75e-06,3.405e-05,"$VNYMR,+058.548,+004.180,+002.445,+00.2956,-00.0775,+00.3405,+01.269,+00.509,-09.788,+00.035105,+00.017797,-00.294198*65
"
1763590173.25057,imu1_Frame,0.032419,0.024574,-0.295078,1.053,0.279,-10.103,2.9210000000000003e-05,-7.620000000000001e-06,3.469e-05,"$VNYMR,+058.134,+004.183,+002.465,+00.2921,-00.0762,+00.3469,+01.053,+00.279,-10.103,+00.032419,+00.024574,-00.295078*6F
"
1763590173.270439,imu1_Frame,0.032366,0.016559,-0.294702,0.954,0.14,-10.045,2.9570000000000003e-05,-6.550000000000001e-06,3.4699999999999996e-05,"$VNYMR,+057.719,+004.176,+002.479,+00.2957,-00.0655,+00.3470,+00.954,+00.140,-10.045,+00.032366,+00.016559,-00.294702*6D
"
1763590173.300813,imu1_Frame,0.019648,0.006001,-0.286183,0.676,0.16,-10.176,2.9570000000000003e-05,-6.67e-06,3.5220000000000005e-05,"$VNYMR,+057.303,+004.176,+002.483,+00.2957,-00.0667,+00.3522,+00.676,+00.160,-10.176,+00.019648,+00.006001,-00.286183*69
"
1763590173.3205287,imu1_Frame,0.022928,-0.020279,-0.288663,1.047,0.224,-9.792,3.062e-05,-7.06e-06,3.409e-05,"$VNYMR,+056.886,+004.175,+002.480,+00.3062,-00.0706,+00.3409,+01.047,+00.224,-09.792,+00.022928,-00.020279,-00.288663*65
"
1763590173.3513875,imu1_Frame,0.021903,-0.022639,-0.283814,0.934,0.25,-9.636,3.051e-05,-6.34e-06,3.487e-05,"$VNYMR,+056.473,+004.166,+002.476,+00.3051,-00.0634,+00.3487,+00.934,+00.250,-09.636,+00.021903,-00.022639,-00.283814*63
"
1763590173.3706152,imu1_Frame,0.026913,-0.045999,-0.283511,1.519,0.544,-9.504,3.109e-05,-6.35e-06,3.463e-05,"$VNYMR,+056.065,+004.161,+002.472,+00.3109,-00.0635,+00.3463,+01.519,+00.544,-09.504,+00.026913,-00.045999,-00.283511*6C
"
1763590173.4009418,imu1_Frame,0.022776,-0.058621,-0.279301,1.611,0.682,-9.425,3.109e-05,-6.710000000000001e-06,3.516e-05,"$VNYMR,+055.660,+004.148,+002.468,+00.3109,-00.0671,+00.3516,+01.611,+00.682,-09.425,+00.022776,-00.058621,-00.279301*64
"
1763590173.4207578,imu1_Frame,0.022822,-0.062611,-0.277115,1.601,1.039,-9.266,3.109e-05,-6.110000000000001e-06,3.489e-05,"$VNYMR,+055.260,+004.124,+002.466,+00.3109,-00.0611,+00.3489,+01.601,+01.039,-09.266,+00.022822,-00.062611,-00.277115*6F
"
1763590173.4512794,imu1_Frame,0.029632,-0.042896,-0.279289,1.437,1.11,-9.925,3.0980000000000005e-05,-5.03e-06,3.487e-05,"$VNYMR,+054.866,+004.107,+002.473,+00.3098,-00.0503,+00.3487,+01.437,+01.110,-09.925,+00.029632,-00.042896,-00.279289*6E
"
1763590173.4712136,imu1_Frame,0.030111,-0.036834,-0.276879,0.914,0.767,-10.053,3.109e-05,-5.750000000000001e-06,3.515e-05,"$VNYMR,+054.472,+004.076,+002.488,+00.3109,-00.0575,+00.3515,+00.914,+00.767,-10.053,+00.030111,-00.036834,-00.276879*63
"
1763590173.501024,imu1_Frame,0.032309,-0.019569,-0.277468,0.549,0.861,-10.014,3.0969999999999997e-05,-6.35e-06,3.502e-05,"$VNYMR,+054.080,+004.046,+002.505,+00.3097,-00.0635,+00.3502,+00.549,+00.861,-10.014,+00.032309,-00.019569,-00.277468*68
"
1763590173.5212224,imu1_Frame,0.031682,-0.025767,-0.272387,0.603,1.015,-9.914,3.087e-05,-5.2600000000000005e-06,3.4210000000000006e-05,"$VNYMR,+053.687,+004.014,+002.526,+00.3087,-00.0526,+00.3421,+00.603,+01.015,-09.914,+00.031682,-00.025767,-00.272387*6B
"
1763590173.5510097,imu1_Frame,0.036419,-0.035795,-0.276682,0.719,0.777,-9.313,3.087e-05,-5.140000000000001e-06,3.487e-05,"$VNYMR,+053.287,+003.978,+002.549,+00.3087,-00.0514,+00.3487,+00.719,+00.777,-09.313,+00.036419,-00.035795,-00.276682*65
"
1763590173.5709062,imu1_Frame,0.03461,-0.036334,-0.27856,0.267,0.672,-9.783,3.168e-05,-5.64e-06,3.399e-05,"$VNYMR,+052.883,+003.951,+002.568,+00.3168,-00.0564,+00.3399,+00.267,+00.672,-09.783,+00.034610,-00.036334,-00.278560*6C
"
1763590173.6014524,imu1_Frame,0.039191,-0.030032,-0.28078,0.622,0.811,-9.711,3.18e-05,-5.53e-06,3.32e-05,"$VNYMR,+052.475,+003.927,+002.590,+00.3180,-00.0553,+00.3320,+00.622,+00.811,-09.711,+00.039191,-00.030032,-00.280780*61
"
1763590173.62049,imu1_Frame,0.046163,-0.041463,-0.293069,1.361,0.533,-9.035,3.133000000000001e-05,-4.9100000000000004e-06,3.3700000000000006e-05,"$VNYMR,+052.057,+003.902,+002.618,+00.3133,-00.0491,+00.3370,+01.361,+00.533,-09.035,+00.046163,-00.041463,-00.293069*6D
"
1763590173.6507175,imu1_Frame,0.050606,-0.034997,-0.294758,0.873,0.478,-9.207,3.238e-05,-5.06e-06,3.414e-05,"$VNYMR,+051.637,+003.879,+002.650,+00.3238,-00.0506,+00.3414,+00.873,+00.478,-09.207,+00.050606,-00.034997,-00.294758*6C
"
1763590173.6712236,imu1_Frame,0.056408,-0.050486,-0.295312,0.943,0.506,-9.478,3.18e-05,-5.29e-06,3.346e-05,"$VNYMR,+051.220,+003.876,+002.685,+00.3180,-00.0529,+00.3346,+00.943,+00.506,-09.478,+00.056408,-00.050486,-00.295312*6E
"
1763590173.7009974,imu1_Frame,0.049477,-0.025919,-0.295876,0.481,0.207,-9.648,3.2029999999999997e-05,-5.1700000000000005e-06,3.3339999999999996e-05,"$VNYMR,+050.796,+003.864,+002.721,+00.3203,-00.0517,+00.3334,+00.481,+00.207,-09.648,+00.049477,-00.025919,-00.295876*69
"
1763590173.7203836,imu1_Frame,0.037092,-0.042586,-0.286712,0.971,0.199,-9.562,3.215e-05,-5.050000000000001e-06,3.295e-05,"$VNYMR,+050.378,+003.865,+002.741,+00.3215,-00.0505,+00.3295,+00.971,+00.199,-09.562,+00.037092,-00.042586,-00.286712*6B
"
1763590173.7512305,imu1_Frame,0.033459,-0.054111,-0.287964,0.918,0.605,-9.692,3.261e-05,-5.3e-06,3.206e-05,"$VNYMR,+049.963,+003.859,+002.756,+00.3261,-00.0530,+00.3206,+00.918,+00.605,-09.692,+00.033459,-00.054111,-00.287964*60
"
1763590173.770593,imu1_Frame,0.023317,0.016316,-0.281507,0.536,0.693,-10.503,3.215e-05,-4.33e-06,3.321e-05,"$VNYMR,+049.551,+003.855,+002.770,+00.3215,-00.0433,+00.3321,+00.536,+00.693,-10.503,+00.023317,+00.016316,-00.281507*6A
"
1763590173.8018415,imu1_Frame,0.028738,0.018847,-0.288568,0.904,0.492,-10.053,3.238e-05,-4.7e-06,3.243e-05,"$VNYMR,+049.138,+003.852,+002.790,+00.3238,-00.0470,+00.3243,+00.904,+00.492,-10.053,+00.028738,+00.018847,-00.288568*68
"
1763590173.8209221,imu1_Frame,0.030656,0.002225,-0.287013,0.685,0.511,-9.618,3.344e-05,-4.13e-06,3.247e-05,"$VNYMR,+048.732,+003.841,+002.813,+00.3344,-00.0413,+00.3247,+00.685,+00.511,-09.618,+00.030656,+00.002225,-00.287013*66
"
1763590173.8507988,imu1_Frame,0.033334,-0.029572,-0.28661,0.664,0.478,-9.314,3.344e-05,-4.3700000000000005e-06,3.247e-05,"$VNYMR,+048.323,+003.827,+002.835,+00.3344,-00.0437,+00.3247,+00.664,+00.478,-09.314,+00.033334,-00.029572,-00.286610*64
"
1763590173.8709025,imu1_Frame,0.039103,-0.040483,-0.28239,0.862,0.248,-9.666,3.344e-05,-4.250000000000001e-06,3.339e-05,"$VNYMR,+047.915,+003.824,+002.854,+00.3344,-00.0425,+00.3339,+00.862,+00.248,-09.666,+00.039103,-00.040483,-00.282390*63
"
1763590173.9009783,imu1_Frame,0.033313,-0.043963,-0.280038,0.766,0.32,-9.79,3.251e-05,-4.22e-06,3.2300000000000006e-05,"$VNYMR,+047.508,+003.819,+002.866,+00.3251,-00.0422,+00.3230,+00.766,+00.320,-09.790,+00.033313,-00.043963,-00.280038*60
"
1763590173.920315,imu1_Frame,0.027501,-0.012329,-0.285284,0.918,0.355,-9.706,3.367e-05,-3.7800000000000002e-06,3.313e-05,"$VNYMR,+047.095,+003.817,+002.875,+00.3367,-00.0378,+00.3313,+00.918,+00.355,-09.706,+00.027501,-00.012329,-00.285284*6B
"
1763590173.9510942,imu1_Frame,0.02225,-0.009291,-0.284671,0.959,0.576,-9.857,3.332e-05,-3.7600000000000004e-06,3.286e-05,"$VNYMR,+046.678,+003.816,+002.878,+00.3332,-00.0376,+00.3286,+00.959,+00.576,-09.857,+00.022250,-00.009291,-00.284671*68
"
1763590173.971177,imu1_Frame,0.02981,-0.036398,-0.291183,1.072,0.576,-9.221,3.3900000000000004e-05,-4.0200000000000005e-06,3.275e-05,"$VNYMR,+046.260,+003.804,+002.884,+00.3390,-00.0402,+00.3275,+01.072,+00.576,-09.221,+00.029810,-00.036398,-00.291183*60
"
1763590174.0005999,imu1_Frame,0.04,-0.061413,-0.302427,0.976,0.559,-9.451,3.333e-05,-3.29e-06,3.325e-05,"$VNYMR,+045.841,+003.795,+002.889,+00.3333,-00.0329,+00.3325,+00.976,+00.559,-09.451,+00.040000,-00.061413,-00.302427*63
"
1763590174.0207047,imu1_Frame,0.028828,-0.053914,-0.290056,1.315,0.683,-10.181,3.379e-05,-3.4200000000000003e-06,3.287e-05,"$VNYMR,+045.425,+003.795,+002.890,+00.3379,-00.0342,+00.3287,+01.315,+00.683,-10.181,+00.028828,-00.053914,-00.290056*6A
"
1763590174.0508223,imu1_Frame,0.02802,-0.032984,-0.291018,1.468,0.888,-9.623,3.24e-05,-2.9e-06,3.32e-05,"$VNYMR,+045.003,+003.783,+002.896,+00.3240,-00.0290,+00.3320,+01.468,+00.888,-09.623,+00.028020,-00.032984,-00.291018*68
"
1763590174.0705633,imu1_Frame,0.018511,-0.003495,-0.29781,1.061,0.609,-9.948,3.3100000000000005e-05,-2.4400000000000004e-06,3.283e-05,"$VNYMR,+044.582,+003.769,+002.901,+00.3310,-00.0244,+00.3283,+01.061,+00.609,-09.948,+00.018511,-00.003495,-00.297810*6E
"
1763590174.1008482,imu1_Frame,0.006635,0.019093,-0.293696,0.492,0.433,-10.517,3.2760000000000005e-05,-1.7100000000000001e-06,3.281e-05,"$VNYMR,+044.161,+003.753,+002.900,+00.3276,-00.0171,+00.3281,+00.492,+00.433,-10.517,+00.006635,+00.019093,-00.293696*64
"
1763590174.1207244,imu1_Frame,0.000481,0.011993,-0.293248,0.479,0.551,-9.999,3.275e-05,-2.55e-06,3.3610000000000005e-05,"$VNYMR,+043.739,+003.737,+002.889,+00.3275,-00.0255,+00.3361,+00.479,+00.551,-09.999,+00.000481,+00.011993,-00.293248*6C
"
1763590174.151374,imu1_Frame,0.003663,-0.006382,-0.29617,0.356,0.511,-9.812,3.275e-05,-2.43e-06,3.282e-05,"$VNYMR,+043.316,+003.734,+002.872,+00.3275,-00.0243,+00.3282,+00.356,+00.511,-09.812,+00.003663,-00.006382,-00.296170*6F
"
1763590174.1708138,imu1_Frame,0.010955,-0.009693,-0.295786,0.378,0.578,-10.003,3.357e-05,-2.5700000000000004e-06,3.233e-05,"$VNYMR,+042.891,+003.739,+002.859,+00.3357,-00.0257,+00.3233,+00.378,+00.578,-10.003,+00.010955,-00.009693,-00.295786*6D
"
1763590174.2008367,imu1_Frame,0.027481,-0.027536,-0.28972,0.831,0.75,-9.426,3.2760000000000005e-05,-1.7100000000000001e-06,3.32e-05,"$VNYMR,+042.469,+003.751,+002.863,+00.3276,-00.0171,+00.3320,+00.831,+00.750,-09.426,+00.027481,-00.027536,-00.289720*63
"
1763590174.220826,imu1_Frame,0.040456,-0.024933,-0.293168,1.04,0.719,-9.497,3.206e-05,-2.29e-06,3.3310000000000005e-05,"$VNYMR,+042.043,+003.758,+002.884,+00.3206,-00.0229,+00.3331,+01.040,+00.719,-09.497,+00.040456,-00.024933,-00.293168*6E
"
1763590174.2510116,imu1_Frame,0.04119,-0.001721,-0.290964,0.875,0.624,-9.855,3.2760000000000005e-05,-2.19e-06,3.2550000000000005e-05,"$VNYMR,+041.617,+003.762,+002.914,+00.3276,-00.0219,+00.3255,+00.875,+00.624,-09.855,+00.041190,-00.001721,-00.290964*6D
"
1763590174.2706542,imu1_Frame,0.045719,-0.020393,-0.290902,0.948,0.458,-9.39,3.2760000000000005e-05,-1.7100000000000001e-06,3.268e-05,"$VNYMR,+041.191,+003.753,+002.949,+00.3276,-00.0171,+00.3268,+00.948,+00.458,-09.390,+00.045719,-00.020393,-00.290902*64
"
1763590174.3008869,imu1_Frame,0.04733,-0.064219,-0.292216,1.059,0.657,-9.336,3.2540000000000004e-05,-7.400000000000001e-07,3.3050000000000004e-05,"$VNYMR,+040.765,+003.732,+002.980,+00.3254,-00.0074,+00.3305,+01.059,+00.657,-09.336,+00.047330,-00.064219,-00.292216*6F
"
1763590174.3208637,imu1_Frame,0.035168,-0.052873,-0.294878,0.877,0.665,-9.657,3.346e-05,-1.72e-06,3.245e-05,"$VNYMR,+040.339,+003.719,+003.001,+00.3346,-00.0172,+00.3245,+00.877,+00.665,-09.657,+00.035168,-00.052873,-00.294878*61
"
1763590174.3515227,imu1_Frame,0.035487,-0.06437,-0.296935,1.155,0.757,-9.122,3.2760000000000005e-05,-1.95e-06,3.281e-05,"$VNYMR,+039.911,+003.694,+003.017,+00.3276,-00.0195,+00.3281,+01.155,+00.757,-09.122,+00.035487,-00.064370,-00.296935*61
"
1763590174.3709152,imu1_Frame,0.040941,-0.075303,-0.302124,1.564,0.905,-8.793,3.299e-05,-1.84e-06,3.374e-05,"$VNYMR,+039.484,+003.669,+003.030,+00.3299,-00.0184,+00.3374,+01.564,+00.905,-08.793,+00.040941,-00.075303,-00.302124*6A
"
1763590174.400608,imu1_Frame,0.023985,-0.018693,-0.298726,1.443,0.588,-9.089,3.404e-05,-1.86e-06,3.3520000000000004e-05,"$VNYMR,+039.053,+003.644,+003.038,+00.3404,-00.0186,+00.3352,+01.443,+00.588,-09.089,+00.023985,-00.018693,-00.298726*6B
"
1763590174.4202561,imu1_Frame,0.019778,0.001163,-0.303237,1.12,0.549,-9.589,3.3339999999999996e-05,-1.9699999999999998e-06,3.389e-05,"$VNYMR,+038.620,+003.614,+003.042,+00.3334,-00.0197,+00.3389,+01.120,+00.549,-09.589,+00.019778,+00.001163,-00.303237*6F
"
1763590174.4506855,imu1_Frame,0.020755,-0.012526,-0.304967,0.945,0.489,-9.652,3.392e-05,-2.1000000000000002e-06,3.313e-05,"$VNYMR,+038.186,+003.586,+003.046,+00.3392,-00.0210,+00.3313,+00.945,+00.489,-09.652,+00.020755,-00.012526,-00.304967*64
"
1763590174.470443,imu1_Frame,0.023382,-0.026826,-0.306401,0.803,0.256,-9.458,3.404e-05,-1.26e-06,3.325e-05,"$VNYMR,+037.750,+003.557,+003.053,+00.3404,-00.0126,+00.3325,+00.803,+00.256,-09.458,+00.023382,-00.026826,-00.306401*62
"
1763590174.500744,imu1_Frame,0.025878,-0.05016,-0.306705,0.539,0.15,-9.86,3.415e-05,-2.11e-06,3.419e-05,"$VNYMR,+037.318,+003.540,+003.059,+00.3415,-00.0211,+00.3419,+00.539,+00.150,-09.860,+00.025878,-00.050160,-00.306705*6A
"
1763590174.5208664,imu1_Frame,0.017743,-0.040079,-0.299804,1.093,0.323,-9.748,3.287e-05,-1.96e-06,3.479e-05,"$VNYMR,+036.886,+003.524,+003.059,+00.3287,-00.0196,+00.3479,+01.093,+00.323,-09.748,+00.017743,-00.040079,-00.299804*62
"
1763590174.550581,imu1_Frame,0.01047,-0.027311,-0.30368,0.908,0.126,-9.787,3.417e-05,-6.7e-07,3.417e-05,"$VNYMR,+036.451,+003.500,+003.051,+00.3417,-00.0067,+00.3417,+00.908,+00.126,-09.787,+00.010470,-00.027311,-00.303680*64
"
1763590174.570799,imu1_Frame,-0.004352,-0.0073,-0.296449,0.588,0.121,-9.95,3.323e-05,-1.25e-06,3.545e-05,"$VNYMR,+036.018,+003.475,+003.030,+00.3323,-00.0125,+00.3545,+00.588,+00.121,-09.950,-00.004352,-00.007300,-00.296449*63
"
1763590174.600816,imu1_Frame,-0.005922,-0.048643,-0.293178,0.555,0.211,-9.857,3.393e-05,-1.27e-06,3.5610000000000006e-05,"$VNYMR,+035.586,+003.450,+002.999,+00.3393,-00.0127,+00.3561,+00.555,+00.211,-09.857,-00.005922,-00.048643,-00.293178*60
"
1763590174.632647,imu1_Frame,-0.001788,-0.052293,-0.305417,0.898,0.137,-9.54,3.358e-05,-7.7e-07,3.52e-05,"$VNYMR,+035.149,+003.438,+002.960,+00.3358,-00.0077,+00.3520,+00.898,+00.137,-09.540,-00.001788,-00.052293,-00.305417*63
"
1763590174.6505263,imu1_Frame,-0.004824,-0.024528,-0.304353,0.958,0.693,-9.763,3.404e-05,-1.27e-06,3.549e-05,"$VNYMR,+034.716,+003.428,+002.917,+00.3404,-00.0127,+00.3549,+00.958,+00.693,-09.763,-00.004824,-00.024528,-00.304353*61
"
1763590174.6704357,imu1_Frame,0.003361,-0.048109,-0.302901,1.095,0.652,-9.86,3.311e-05,-1.36e-06,3.584e-05,"$VNYMR,+034.281,+003.410,+002.883,+00.3311,-00.0136,+00.3584,+01.095,+00.652,-09.860,+00.003361,-00.048109,-00.302901*6A
"
1763590174.7008946,imu1_Frame,0.005688,-0.040161,-0.301339,0.986,0.434,-9.487,3.3e-05,-7.6e-07,3.5170000000000004e-05,"$VNYMR,+033.843,+003.397,+002.856,+00.3300,-00.0076,+00.3517,+00.986,+00.434,-09.487,+00.005688,-00.040161,-00.301339*6B
"
1763590174.7209017,imu1_Frame,0.005836,-0.023354,-0.302996,0.732,0.816,-9.866,3.381e-05,-1.3800000000000001e-06,3.5210000000000003e-05,"$VNYMR,+033.408,+003.386,+002.830,+00.3381,-00.0138,+00.3521,+00.732,+00.816,-09.866,+00.005836,-00.023354,-00.302996*67
"
1763590174.7509482,imu1_Frame,0.011909,-0.053868,-0.306557,1.087,0.912,-9.049,3.323e-05,-6.5e-07,3.558e-05,"$VNYMR,+032.970,+003.372,+002.807,+00.3323,-00.0065,+00.3558,+01.087,+00.912,-09.049,+00.011909,-00.053868,-00.306557*62
"
1763590174.7707791,imu1_Frame,0.005442,-0.02561,-0.304999,1.209,0.644,-9.027,3.369e-05,-1.14e-06,3.599e-05,"$VNYMR,+032.535,+003.371,+002.781,+00.3369,-00.0114,+00.3599,+01.209,+00.644,-09.027,+00.005442,-00.025610,-00.304999*62
"
1763590174.8012013,imu1_Frame,-0.006155,0.007595,-0.308736,0.987,0.751,-9.485,3.3700000000000006e-05,-1.0200000000000002e-06,3.586e-05,"$VNYMR,+032.095,+003.370,+002.744,+00.3370,-00.0102,+00.3586,+00.987,+00.751,-09.485,-00.006155,+00.007595,-00.308736*68
"
1763590174.82079,imu1_Frame,-0.009914,0.005096,-0.304862,1.045,0.743,-9.746,3.475e-05,-5.7e-07,3.5380000000000003e-05,"$VNYMR,+031.656,+003.358,+002.703,+00.3475,-00.0057,+00.3538,+01.045,+00.743,-09.746,-00.009914,+00.005096,-00.304862*60
"
1763590174.8516653,imu1_Frame,-0.00084,0.000352,-0.308313,0.731,0.72,-9.781,3.4280000000000004e-05,-9.2e-07,3.6020000000000004e-05,"$VNYMR,+031.216,+003.346,+002.667,+00.3428,-00.0092,+00.3602,+00.731,+00.720,-09.781,-00.000840,+00.000352,-00.308313*6A
"
1763590174.870829,imu1_Frame,0.008706,-0.00348,-0.308845,0.541,0.938,-9.998,3.5560000000000005e-05,-1.19e-06,3.542e-05,"$VNYMR,+030.778,+003.342,+002.646,+00.3556,-00.0119,+00.3542,+00.541,+00.938,-09.998,+00.008706,-00.003480,-00.308845*6E
"
1763590174.9006848,imu1_Frame,0.023497,0.00838,-0.308249,0.852,0.918,-10.066,3.475e-05,-4.5e-07,3.59e-05,"$VNYMR,+030.341,+003.338,+002.648,+00.3475,-00.0045,+00.3590,+00.852,+00.918,-10.066,+00.023497,+00.008380,-00.308249*67
"
1763590174.9205775,imu1_Frame,0.027434,0.007987,-0.303024,0.787,0.663,-9.692,3.591e-05,-1.2000000000000002e-06,3.622e-05,"$VNYMR,+029.903,+003.327,+002.662,+00.3591,-00.0120,+00.3622,+00.787,+00.663,-09.692,+00.027434,+00.007987,-00.303024*6A
"
1763590174.9506505,imu1_Frame,0.023769,-0.018164,-0.29919,0.778,0.605,-9.366,3.591e-05,-9.6e-07,3.622e-05,"$VNYMR,+029.468,+003.321,+002.672,+00.3591,-00.0096,+00.3622,+00.778,+00.605,-09.366,+00.023769,-00.018164,-00.299190*61
"
1763590174.9708586,imu1_Frame,0.016015,-0.007866,-0.302446,0.887,0.552,-9.737,3.615e-05,-4.9e-07,3.583e-05,"$VNYMR,+029.034,+003.331,+002.671,+00.3615,-00.0049,+00.3583,+00.887,+00.552,-09.737,+00.016015,-00.007866,-00.302446*67
"
1763590175.0005965,imu1_Frame,0.01631,-0.019241,-0.29741,0.872,0.629,-9.535,3.579e-05,-1.08e-06,3.661e-05,"$VNYMR,+028.602,+003.336,+002.665,+00.3579,-00.0108,+00.3661,+00.872,+00.629,-09.535,+00.016310,-00.019241,-00.297410*68
"
1763590175.0206263,imu1_Frame,0.020186,-0.036362,-0.299971,0.972,0.744,-9.571,3.6490000000000005e-05,-1.46e-06,3.546e-05,"$VNYMR,+028.170,+003.338,+002.663,+00.3649,-00.0146,+00.3546,+00.972,+00.744,-09.571,+00.020186,-00.036362,-00.299971*64
"
1763590175.0507903,imu1_Frame,0.033127,-0.010793,-0.296953,1.185,0.922,-9.579,3.638e-05,-5.000000000000001e-07,3.663e-05,"$VNYMR,+027.741,+003.354,+002.673,+00.3638,-00.0050,+00.3663,+01.185,+00.922,-09.579,+00.033127,-00.010793,-00.296953*6F
"
1763590175.0711951,imu1_Frame,0.037693,-0.007083,-0.295052,0.705,0.771,-9.673,3.6370000000000006e-05,-1.1e-06,3.703e-05,"$VNYMR,+027.314,+003.356,+002.696,+00.3637,-00.0110,+00.3703,+00.705,+00.771,-09.673,+00.037693,-00.007083,-00.295052*66
"
1763590175.1003556,imu1_Frame,0.040098,-0.065063,-0.298405,1.199,0.592,-8.993,3.684e-05,-9.9e-07,3.7040000000000005e-05,"$VNYMR,+026.882,+003.355,+002.717,+00.3684,-00.0099,+00.3704,+01.199,+00.592,-08.993,+00.040098,-00.065063,-00.298405*66
"
1763590175.121208,imu1_Frame,0.032831,-0.046222,-0.302596,1.206,0.777,-9.461,3.684e-05,-7.5e-07,3.717e-05,"$VNYMR,+026.451,+003.367,+002.728,+00.3684,-00.0075,+00.3717,+01.206,+00.777,-09.461,+00.032831,-00.046222,-00.302596*65
"
1763590175.1506157,imu1_Frame,0.015728,-0.001379,-0.303401,1.052,0.535,-10.122,3.6740000000000004e-05,5.7e-07,3.7940000000000006e-05,"$VNYMR,+026.014,+003.377,+002.728,+00.3674,+00.0057,+00.3794,+01.052,+00.535,-10.122,+00.015728,-00.001379,-00.303401*6E
"
1763590175.1713357,imu1_Frame,0.002133,0.002955,-0.309073,0.881,0.433,-10.337,3.685e-05,2.1e-07,3.716e-05,"$VNYMR,+025.575,+003.379,+002.710,+00.3685,+00.0021,+00.3716,+00.881,+00.433,-10.337,+00.002133,+00.002955,-00.309073*69
"
1763590175.2012267,imu1_Frame,-0.002028,-0.001613,-0.311454,0.733,0.642,-10.238,3.7550000000000005e-05,3.1e-07,3.719e-05,"$VNYMR,+025.135,+003.373,+002.685,+00.3755,+00.0031,+00.3719,+00.733,+00.642,-10.238,-00.002028,-00.001613,-00.311454*6D
"
1763590175.221101,imu1_Frame,-0.005204,-0.007583,-0.306329,0.734,0.493,-10.03,3.615e-05,3.5000000000000004e-07,3.7130000000000005e-05,"$VNYMR,+024.692,+003.362,+002.662,+00.3615,+00.0035,+00.3713,+00.734,+00.493,-10.030,-00.005204,-00.007583,-00.306329*6B
"
1763590175.251816,imu1_Frame,0.000129,-0.034437,-0.304674,1.042,0.435,-9.926,3.6740000000000004e-05,9.400000000000001e-07,3.689e-05,"$VNYMR,+024.248,+003.350,+002.638,+00.3674,+00.0094,+00.3689,+01.042,+00.435,-09.926,+00.000129,-00.034437,-00.304674*6B
"
1763590175.2706463,imu1_Frame,0.006371,-0.00261,-0.309501,0.58,0.532,-10.458,3.7090000000000006e-05,9.3e-07,3.677e-05,"$VNYMR,+023.810,+003.338,+002.619,+00.3709,+00.0093,+00.3677,+00.580,+00.532,-10.458,+00.006371,-00.002610,-00.309501*6C
"
1763590175.300847,imu1_Frame,0.008362,0.002109,-0.304227,0.64,0.471,-10.132,3.779e-05,1.27e-06,3.732e-05,"$VNYMR,+023.368,+003.312,+002.611,+00.3779,+00.0127,+00.3732,+00.640,+00.471,-10.132,+00.008362,+00.002109,-00.304227*6A
"
1763590175.3208687,imu1_Frame,0.011315,-0.016277,-0.302741,0.791,0.521,-9.349,3.767e-05,1.27e-06,3.6790000000000005e-05,"$VNYMR,+022.929,+003.290,+002.605,+00.3767,+00.0127,+00.3679,+00.791,+00.521,-09.349,+00.011315,-00.016277,-00.302741*66
"
1763590175.3504078,imu1_Frame,0.015849,-0.001071,-0.297823,0.433,0.618,-10.161,3.884e-05,1.72e-06,3.605e-05,"$VNYMR,+022.497,+003.278,+002.603,+00.3884,+00.0172,+00.3605,+00.433,+00.618,-10.161,+00.015849,-00.001071,-00.297823*67
"
1763590175.3707883,imu1_Frame,0.023578,-0.030798,-0.293772,0.363,0.597,-9.462,3.837e-05,1.37e-06,3.669e-05,"$VNYMR,+022.066,+003.268,+002.609,+00.3837,+00.0137,+00.3669,+00.363,+00.597,-09.462,+00.023578,-00.030798,-00.293772*6A
"
1763590175.4012213,imu1_Frame,0.027053,-0.045383,-0.305876,1.221,0.512,-8.97,3.838e-05,1.85e-06,3.668e-05,"$VNYMR,+021.634,+003.276,+002.611,+00.3838,+00.0185,+00.3668,+01.221,+00.512,-08.970,+00.027053,-00.045383,-00.305876*6C
"
1763590175.4207685,imu1_Frame,0.009771,-0.004217,-0.298955,1.158,0.657,-9.277,3.919e-05,1.35e-06,3.6330000000000006e-05,"$VNYMR,+021.205,+003.285,+002.596,+00.3919,+00.0135,+00.3633,+01.158,+00.657,-09.277,+00.009771,-00.004217,-00.298955*68
"
1763590175.4511666,imu1_Frame,-0.001769,-0.009021,-0.300904,1.004,0.733,-9.026,3.942e-05,1.1e-06,3.595e-05,"$VNYMR,+020.769,+003.281,+002.570,+00.3942,+00.0110,+00.3595,+01.004,+00.733,-09.026,-00.001769,-00.009021,-00.300904*68
"
1763590175.4704587,imu1_Frame,-0.003354,0.001046,-0.309074,0.963,0.589,-9.278,3.966e-05,1.5800000000000003e-06,3.661e-05,"$VNYMR,+020.327,+003.298,+002.533,+00.3966,+00.0158,+00.3661,+00.963,+00.589,-09.278,-00.003354,+00.001046,-00.309074*68
"
1763590175.501031,imu1_Frame,0.004242,-0.027085,-0.311673,0.73,0.803,-9.389,3.977e-05,1.8200000000000002e-06,3.609e-05,"$VNYMR,+019.886,+003.302,+002.499,+00.3977,+00.0182,+00.3609,+00.730,+00.803,-09.389,+00.004242,-00.027085,-00.311673*62
"
1763590175.5207176,imu1_Frame,0.012733,-0.024529,-0.316169,0.935,0.778,-8.779,3.978e-05,2.1800000000000003e-06,3.608e-05,"$VNYMR,+019.440,+003.307,+002.479,+00.3978,+00.0218,+00.3608,+00.935,+00.778,-08.779,+00.012733,-00.024529,-00.316169*6C
"
1763590175.5507684,imu1_Frame,0.018426,0.011664,-0.319317,0.854,0.516,-9.838,3.9070000000000004e-05,1.5900000000000002e-06,3.6320000000000005e-05,"$VNYMR,+018.996,+003.326,+002.468,+00.3907,+00.0159,+00.3632,+00.854,+00.516,-09.838,+00.018426,+00.011664,-00.319317*6B
"
1763590175.5709078,imu1_Frame,0.018275,0.025978,-0.303608,0.851,0.857,-10.145,3.954e-05,1.5800000000000003e-06,3.634e-05,"$VNYMR,+018.554,+003.330,+002.462,+00.3954,+00.0158,+00.3634,+00.851,+00.857,-10.145,+00.018275,+00.025978,-00.303608*66
"
1763590175.601309,imu1_Frame,0.014601,0.035443,-0.30537,0.601,0.691,-10.145,4.0010000000000005e-05,1.69e-06,3.5310000000000006e-05,"$VNYMR,+018.110,+003.325,+002.464,+00.4001,+00.0169,+00.3531,+00.601,+00.691,-10.145,+00.014601,+00.035443,-00.305370*66
"
1763590175.6209986,imu1_Frame,0.013743,0.032032,-0.296317,0.15,0.8,-10.673,4.012e-05,1.92e-06,3.689e-05,"$VNYMR,+017.675,+003.327,+002.466,+00.4012,+00.0192,+00.3689,+00.150,+00.800,-10.673,+00.013743,+00.032032,-00.296317*63
"
1763590175.6507032,imu1_Frame,0.017678,-0.01391,-0.301724,0.482,0.652,-9.7,3.9550000000000006e-05,2.54e-06,3.646e-05,"$VNYMR,+017.238,+003.307,+002.471,+00.3955,+00.0254,+00.3646,+00.482,+00.652,-09.700,+00.017678,-00.013910,-00.301724*69
"
1763590175.6709328,imu1_Frame,0.015284,-0.003524,-0.306099,0.482,0.661,-9.681,4.106e-05,2.74e-06,3.6790000000000005e-05,"$VNYMR,+016.804,+003.297,+002.467,+00.4106,+00.0274,+00.3679,+00.482,+00.661,-09.681,+00.015284,-00.003524,-00.306099*64
"
1763590175.7008104,imu1_Frame,0.004427,-0.023523,-0.296805,0.766,0.758,-9.749,3.979e-05,3.13e-06,3.699e-05,"$VNYMR,+016.369,+003.275,+002.452,+00.3979,+00.0313,+00.3699,+00.766,+00.758,-09.749,+00.004427,-00.023523,-00.296805*6F
"
1763590175.720779,imu1_Frame,0.008158,-0.046003,-0.301694,0.967,0.77,-9.375,4.049e-05,3.96e-06,3.6880000000000006e-05,"$VNYMR,+015.929,+003.248,+002.429,+00.4049,+00.0396,+00.3688,+00.967,+00.770,-09.375,+00.008158,-00.046003,-00.301694*62
"
1763590175.7509046,imu1_Frame,0.00816,-0.055824,-0.308944,1.036,0.823,-9.445,4.014e-05,3.97e-06,3.6740000000000004e-05,"$VNYMR,+015.485,+003.223,+002.401,+00.4014,+00.0397,+00.3674,+01.036,+00.823,-09.445,+00.008160,-00.055824,-00.308944*6A
"
1763590175.7708023,imu1_Frame,0.008667,-0.031072,-0.315601,0.801,0.78,-9.95,3.991e-05,4.45e-06,3.646e-05,"$VNYMR,+015.033,+003.210,+002.374,+00.3991,+00.0445,+00.3646,+00.801,+00.780,-09.950,+00.008667,-00.031072,-00.315601*65
"
1763590175.8013012,imu1_Frame,0.008531,-0.018703,-0.321608,1.08,1.002,-9.924,4.015000000000001e-05,4.81e-06,3.6070000000000005e-05,"$VNYMR,+014.576,+003.196,+002.349,+00.4015,+00.0481,+00.3607,+01.080,+01.002,-09.924,+00.008531,-00.018703,-00.321608*67
"
1763590175.8208551,imu1_Frame,0.019296,-0.039874,-0.325567,0.645,0.649,-9.892,4.084e-05,4.31e-06,3.61e-05,"$VNYMR,+014.116,+003.179,+002.336,+00.4084,+00.0431,+00.3610,+00.645,+00.649,-09.892,+00.019296,-00.039874,-00.325567*6B
"
1763590175.8506389,imu1_Frame,0.020924,-0.065791,-0.320233,1.164,0.925,-9.714,4.097e-05,4.9100000000000004e-06,3.584e-05,"$VNYMR,+013.659,+003.165,+002.328,+00.4097,+00.0491,+00.3584,+01.164,+00.925,-09.714,+00.020924,-00.065791,-00.320233*63
"
1763590175.8707879,imu1_Frame,0.026148,-0.040681,-0.324221,1.002,0.682,-9.677,4.038e-05,5.04e-06,3.555e-05,"$VNYMR,+013.196,+003.150,+002.330,+00.4038,+00.0504,+00.3555,+01.002,+00.682,-09.677,+00.026148,-00.040681,-00.324221*6F
"
1763590175.9014318,imu1_Frame,0.029455,-0.079601,-0.321628,1.124,0.569,-9.788,4.12e-05,4.9000000000000005e-06,3.611e-05,"$VNYMR,+012.742,+003.128,+002.331,+00.4120,+00.0490,+00.3611,+01.124,+00.569,-09.788,+00.029455,-00.079601,-00.321628*66
"
1763590175.920223,imu1_Frame,0.007134,-0.010668,-0.314263,1.065,0.536,-9.725,4.144e-05,5.74e-06,3.5060000000000007e-05,"$VNYMR,+012.287,+003.109,+002.324,+00.4144,+00.0574,+00.3506,+01.065,+00.536,-09.725,+00.007134,-00.010668,-00.314263*6B
"
1763590175.9508977,imu1_Frame,-0.003392,0.01064,-0.314747,0.914,0.435,-10.032,4.155e-05,5.25e-06,3.5340000000000004e-05,"$VNYMR,+011.835,+003.075,+002.304,+00.4155,+00.0525,+00.3534,+00.914,+00.435,-10.032,-00.003392,+00.010640,-00.314747*60
"
1763590175.9709322,imu1_Frame,-0.015282,-0.028187,-0.309375,0.36,0.441,-9.708,4.121000000000001e-05,6.1e-06,3.5310000000000006e-05,"$VNYMR,+011.389,+003.033,+002.270,+00.4121,+00.0610,+00.3531,+00.360,+00.441,-09.708,-00.015282,-00.028187,-00.309375*6C
"
1763590176.0007615,imu1_Frame,-0.028706,-0.021335,-0.310573,0.323,0.39,-9.703,4.1660000000000004e-05,4.89e-06,3.548e-05,"$VNYMR,+010.941,+003.015,+002.223,+00.4166,+00.0489,+00.3548,+00.323,+00.390,-09.703,-00.028706,-00.021335,-00.310573*64
"
1763590176.0209696,imu1_Frame,-0.020495,-0.01565,-0.313439,0.164,0.453,-9.572,4.097e-05,5.2699999999999995e-06,3.597e-05,"$VNYMR,+010.499,+003.028,+002.172,+00.4097,+00.0527,+00.3597,+00.164,+00.453,-09.572,-00.020495,-00.015650,-00.313439*6C
"
1763590176.0506444,imu1_Frame,-0.007839,-0.0398,-0.311572,0.237,0.473,-9.421,4.155e-05,5.49e-06,3.533e-05,"$VNYMR,+010.054,+003.039,+002.130,+00.4155,+00.0549,+00.3533,+00.237,+00.473,-09.421,-00.007839,-00.039800,-00.311572*60
"
1763590176.0702727,imu1_Frame,0.000233,-0.011569,-0.307483,0.44,0.749,-9.507,4.121000000000001e-05,6.1e-06,3.518e-05,"$VNYMR,+009.609,+003.068,+002.099,+00.4121,+00.0610,+00.3518,+00.440,+00.749,-09.507,+00.000233,-00.011569,-00.307483*6D
"
1763590176.1009345,imu1_Frame,0.018844,-0.02217,-0.318234,1.024,0.931,-9.327,4.109e-05,5.74e-06,3.557e-05,"$VNYMR,+009.160,+003.104,+002.085,+00.4109,+00.0574,+00.3557,+01.024,+00.931,-09.327,+00.018844,-00.022170,-00.318234*6A
"
1763590176.1207447,imu1_Frame,0.018918,0.020419,-0.313097,0.641,0.924,-9.646,4.109e-05,5.8700000000000005e-06,3.5310000000000006e-05,"$VNYMR,+008.709,+003.140,+002.082,+00.4109,+00.0587,+00.3531,+00.641,+00.924,-09.646,+00.018918,+00.020419,-00.313097*6D
"
1763590176.1514344,imu1_Frame,0.010336,0.035026,-0.313771,0.427,0.853,-10.117,4.155e-05,5.49e-06,3.56e-05,"$VNYMR,+008.254,+003.173,+002.073,+00.4155,+00.0549,+00.3560,+00.427,+00.853,-10.117,+00.010336,+00.035026,-00.313771*64
"
1763590176.1708758,imu1_Frame,0.000589,0.014224,-0.322249,0.587,0.613,-9.659,4.109e-05,5.63e-06,3.4660000000000004e-05,"$VNYMR,+007.797,+003.196,+002.052,+00.4109,+00.0563,+00.3466,+00.587,+00.613,-09.659,+00.000589,+00.014224,-00.322249*67
"
1763590176.2010472,imu1_Frame,0.009275,-0.097858,-0.324403,1.19,0.63,-8.827,4.0400000000000006e-05,6.360000000000001e-06,3.62e-05,"$VNYMR,+007.344,+003.217,+002.018,+00.4040,+00.0636,+00.3620,+01.190,+00.630,-08.827,+00.009275,-00.097858,-00.324403*6D
"
1763590176.2208164,imu1_Frame,0.004234,-0.080108,-0.319728,1.338,0.593,-9.249,4.144e-05,6.1e-06,3.5720000000000004e-05,"$VNYMR,+006.889,+003.244,+001.974,+00.4144,+00.0610,+00.3572,+01.338,+00.593,-09.249,+00.004234,-00.080108,-00.319728*6A
"
1763590176.250817,imu1_Frame,0.007363,-0.027424,-0.322276,0.955,0.793,-10.374,4.0980000000000004e-05,6.950000000000001e-06,3.608e-05,"$VNYMR,+006.437,+003.264,+001.935,+00.4098,+00.0695,+00.3608,+00.955,+00.793,-10.374,+00.007363,-00.027424,-00.322276*62
"
1763590176.27123,imu1_Frame,0.009134,-0.007931,-0.320467,1.468,0.944,-9.67,4.099e-05,7.79e-06,3.5680000000000004e-05,"$VNYMR,+005.983,+003.274,+001.910,+00.4099,+00.0779,+00.3568,+01.468,+00.944,-09.670,+00.009134,-00.007931,-00.320467*6C
"
1763590176.3004246,imu1_Frame,0.011053,0.018935,-0.311606,1.258,0.889,-9.288,4.123e-05,8.380000000000001e-06,3.542e-05,"$VNYMR,+005.530,+003.282,+001.901,+00.4123,+00.0838,+00.3542,+01.258,+00.889,-09.288,+00.011053,+00.018935,-00.311606*67
"
1763590176.320516,imu1_Frame,0.024937,0.046395,-0.315105,0.996,1.031,-9.577,4.088e-05,8.390000000000001e-06,3.541e-05,"$VNYMR,+005.080,+003.294,+001.907,+00.4088,+00.0839,+00.3541,+00.996,+01.031,-09.577,+00.024937,+00.046395,-00.315105*69
"
1763590176.3506303,imu1_Frame,0.032787,0.031326,-0.315609,0.679,0.83,-10.019,4.007e-05,8.78e-06,3.537e-05,"$VNYMR,+004.631,+003.314,+001.925,+00.4007,+00.0878,+00.3537,+00.679,+00.830,-10.019,+00.032787,+00.031326,-00.315609*6C
"
1763590176.3706343,imu1_Frame,0.027811,0.027497,-0.312174,0.798,0.707,-9.998,4.0770000000000004e-05,8.76e-06,3.553e-05,"$VNYMR,+004.185,+003.338,+001.942,+00.4077,+00.0876,+00.3553,+00.798,+00.707,-09.998,+00.027811,+00.027497,-00.312174*69
"
1763590176.4007573,imu1_Frame,0.026253,0.004047,-0.312887,0.899,0.627,-9.873,4.123e-05,8.86e-06,3.6070000000000005e-05,"$VNYMR,+003.739,+003.367,+001.955,+00.4123,+00.0886,+00.3607,+00.899,+00.627,-09.873,+00.026253,+00.004047,-00.312887*67
"
1763590176.4208906,imu1_Frame,0.018064,-0.012617,-0.307822,1.259,0.72,-9.42,4.135e-05,9.34e-06,3.5680000000000004e-05,"$VNYMR,+003.295,+003.397,+001.956,+00.4135,+00.0934,+00.3568,+01.259,+00.720,-09.420,+00.018064,-00.012617,-00.307822*64
"
1763590176.450719,imu1_Frame,0.010998,-0.00663,-0.309382,1.053,0.483,-9.784,4.042e-05,9.01e-06,3.591e-05,"$VNYMR,+002.848,+003.421,+001.945,+00.4042,+00.0901,+00.3591,+01.053,+00.483,-09.784,+00.010998,-00.006630,-00.309382*64
"
1763590176.4707897,imu1_Frame,0.015207,0.003551,-0.315449,0.582,0.637,-10.058,4.124e-05,9.23e-06,3.502e-05,"$VNYMR,+002.400,+003.450,+001.932,+00.4124,+00.0923,+00.3502,+00.582,+00.637,-10.058,+00.015207,+00.003551,-00.315449*60
"
1763590176.5016243,imu1_Frame,0.036497,-0.044678,-0.310623,1.472,1.238,-9.197,4.041e-05,8.53e-06,3.565e-05,"$VNYMR,+001.957,+003.474,+001.934,+00.4041,+00.0853,+00.3565,+01.472,+01.238,-09.197,+00.036497,-00.044678,-00.310623*6E
"
1763590176.521407,imu1_Frame,0.044474,-0.020735,-0.32106,1.156,0.612,-9.64,4.0770000000000004e-05,9e-06,3.539e-05,"$VNYMR,+001.510,+003.487,+001.952,+00.4077,+00.0900,+00.3539,+01.156,+00.612,-09.640,+00.044474,-00.020735,-00.321060*64
"
1763590176.5519772,imu1_Frame,0.036042,-0.031479,-0.30574,1.164,0.687,-9.75,4.053e-05,8.76e-06,3.565e-05,"$VNYMR,+001.069,+003.488,+001.969,+00.4053,+00.0876,+00.3565,+01.164,+00.687,-09.750,+00.036042,-00.031479,-00.305740*66
"
1763590176.5712514,imu1_Frame,0.026866,-0.026577,-0.310124,1.262,1.064,-9.543,4.1e-05,8.75e-06,3.514e-05,"$VNYMR,+000.626,+003.485,+001.979,+00.4100,+00.0875,+00.3514,+01.262,+01.064,-09.543,+00.026866,-00.026577,-00.310124*6D
"
1763590176.6008425,imu1_Frame,0.023041,-0.027899,-0.310664,0.617,1.011,-9.712,4.042e-05,9.01e-06,3.604e-05,"$VNYMR,+000.182,+003.472,+001.984,+00.4042,+00.0901,+00.3604,+00.617,+01.011,-09.712,+00.023041,-00.027899,-00.310664*6D
"
1763590176.6209493,imu1_Frame,0.014885,0.00373,-0.300286,0.189,0.906,-10.209,4.147e-05,9.100000000000001e-06,3.555e-05,"$VNYMR,-000.262,+003.469,+001.985,+00.4147,+00.0910,+00.3555,+00.189,+00.906,-10.209,+00.014885,+00.003730,-00.300286*66
"
1763590176.651151,imu1_Frame,0.019419,0.022494,-0.303704,0.494,1.293,-10.293,4.113e-05,1.055e-05,3.579e-05,"$VNYMR,-000.703,+003.474,+001.990,+00.4113,+00.1055,+00.3579,+00.494,+01.293,-10.293,+00.019419,+00.022494,-00.303704*60
"
1763590176.6712792,imu1_Frame,0.013733,0.025738,-0.301181,0.192,0.919,-10.043,4.089e-05,9.35e-06,3.579e-05,"$VNYMR,-001.150,+003.473,+001.996,+00.4089,+00.0935,+00.3579,+00.192,+00.919,-10.043,+00.013733,+00.025738,-00.301181*62
"
1763590176.7008996,imu1_Frame,0.012202,-0.011324,-0.299526,0.372,1.1,-9.391,4.124e-05,9.820000000000001e-06,3.593e-05,"$VNYMR,-001.596,+003.486,+001.999,+00.4124,+00.0982,+00.3593,+00.372,+01.100,-09.391,+00.012202,-00.011324,-00.299526*69
"
1763590176.720638,imu1_Frame,0.017559,0.01701,-0.320355,0.299,0.999,-9.694,4.1120000000000006e-05,9.23e-06,3.554e-05,"$VNYMR,-002.046,+003.513,+002.001,+00.4112,+00.0923,+00.3554,+00.299,+00.999,-09.694,+00.017559,+00.017010,-00.320355*65
"
1763590176.7509792,imu1_Frame,0.02,0.019756,-0.318116,0.163,0.79,-9.596,4.054e-05,9.84e-06,3.616e-05,"$VNYMR,-002.496,+003.520,+002.003,+00.4054,+00.0984,+00.3616,+00.163,+00.790,-09.596,+00.020000,+00.019756,-00.318116*6D
"
1763590176.7704608,imu1_Frame,0.029221,-0.027787,-0.313681,0.785,0.974,-8.842,4.09e-05,1.0440000000000002e-05,3.5520000000000006e-05,"$VNYMR,-002.945,+003.533,+002.003,+00.4090,+00.1044,+00.3552,+00.785,+00.974,-08.842,+00.029221,-00.027787,-00.313681*61
"
1763590176.8011236,imu1_Frame,0.03093,0.000644,-0.31158,0.558,0.957,-9.321,4.078e-05,1.02e-05,3.6700000000000004e-05,"$VNYMR,-003.394,+003.555,+002.005,+00.4078,+00.1020,+00.3670,+00.558,+00.957,-09.321,+00.030930,+00.000644,-00.311580*65
"
1763590176.8207242,imu1_Frame,0.032733,0.007101,-0.308972,0.09,0.771,-9.848,4.055e-05,1.093e-05,3.5890000000000004e-05,"$VNYMR,-003.842,+003.557,+002.009,+00.4055,+00.1093,+00.3589,+00.090,+00.771,-09.848,+00.032733,+00.007101,-00.308972*61
"
1763590176.8504968,imu1_Frame,0.027621,-0.032786,-0.308949,0.631,0.383,-9.168,4.125e-05,1.1500000000000002e-05,3.6830000000000005e-05,"$VNYMR,-004.292,+003.565,+002.009,+00.4125,+00.1150,+00.3683,+00.631,+00.383,-09.168,+00.027621,-00.032786,-00.308949*69
"
1763590176.8708477,imu1_Frame,0.026755,-0.010635,-0.318748,0.547,0.511,-9.477,4.125e-05,1.114e-05,3.6309999999999996e-05,"$VNYMR,-004.741,+003.589,+002.004,+00.4125,+00.1114,+00.3631,+00.547,+00.511,-09.477,+00.026755,-00.010635,-00.318748*64
"
1763590176.9011166,imu1_Frame,0.02193,-0.007567,-0.314786,1.129,0.764,-8.956,4.1020000000000004e-05,1.175e-05,3.6950000000000004e-05,"$VNYMR,-005.194,+003.604,+002.001,+00.4102,+00.1175,+00.3695,+01.129,+00.764,-08.956,+00.021930,-00.007567,-00.314786*60
"
1763590176.920804,imu1_Frame,0.019876,0.006984,-0.316485,1.64,0.933,-8.754,4.044e-05,1.1890000000000001e-05,3.706e-05,"$VNYMR,-005.650,+003.635,+001.996,+00.4044,+00.1189,+00.3706,+01.640,+00.933,-08.754,+00.019876,+00.006984,-00.316485*66
"
1763590176.9513996,imu1_Frame,0.018778,0.045489,-0.317607,0.69,0.772,-9.81,4.126e-05,1.2590000000000001e-05,3.669e-05,"$VNYMR,-006.103,+003.683,+001.992,+00.4126,+00.1259,+00.3669,+00.690,+00.772,-09.810,+00.018778,+00.045489,-00.317607*69
"
1763590176.970926,imu1_Frame,0.025256,0.032366,-0.319473,0.8,0.839,-9.784,4.0560000000000005e-05,1.1880000000000001e-05,3.732e-05,"$VNYMR,-006.557,+003.723,+001.997,+00.4056,+00.1188,+00.3732,+00.800,+00.839,-09.784,+00.025256,+00.032366,-00.319473*6F
"
1763590177.0009718,imu1_Frame,0.026538,0.031059,-0.321486,1.129,0.662,-9.886,4.0910000000000006e-05,1.2590000000000001e-05,3.72e-05,"$VNYMR,-007.010,+003.769,+002.006,+00.4091,+00.1259,+00.3720,+01.129,+00.662,-09.886,+00.026538,+00.031059,-00.321486*6C
"
1763590177.0201716,imu1_Frame,0.01992,0.041939,-0.315921,1.083,0.507,-10.223,4.033e-05,1.1890000000000001e-05,3.692e-05,"$VNYMR,-007.460,+003.811,+002.009,+00.4033,+00.1189,+00.3692,+01.083,+00.507,-10.223,+00.019920,+00.041939,-00.315921*64
"
1763590177.0508804,imu1_Frame,-0.000398,0.046337,-0.315056,0.899,0.395,-10.376,4.08e-05,1.236e-05,3.68e-05,"$VNYMR,-007.912,+003.841,+001.994,+00.4080,+00.1236,+00.3680,+00.899,+00.395,-10.376,-00.000398,+00.046337,-00.315056*68
"
1763590177.0709202,imu1_Frame,-0.009009,0.012844,-0.314463,0.982,0.49,-10.816,4.044e-05,1.201e-05,3.732e-05,"$VNYMR,-008.363,+003.862,+001.958,+00.4044,+00.1201,+00.3732,+00.982,+00.490,-10.816,-00.009009,+00.012844,-00.314463*65
"
1763590177.1008694,imu1_Frame,-0.012834,0.000886,-0.307828,1.102,0.736,-10.463,4.103e-05,1.2230000000000001e-05,3.6950000000000004e-05,"$VNYMR,-008.811,+003.871,+001.915,+00.4103,+00.1223,+00.3695,+01.102,+00.736,-10.463,-00.012834,+00.000886,-00.307828*6E
"
1763590177.1206074,imu1_Frame,0.003298,-0.026475,-0.313123,1.178,0.898,-9.964,4.0910000000000006e-05,1.235e-05,3.707e-05,"$VNYMR,-009.262,+003.861,+001.885,+00.4091,+00.1235,+00.3707,+01.178,+00.898,-09.964,+00.003298,-00.026475,-00.313123*64
"
1763590177.1507475,imu1_Frame,0.012209,-0.046072,-0.309405,1.325,0.757,-9.78,4.092e-05,1.308e-05,3.68e-05,"$VNYMR,-009.715,+003.839,+001.868,+00.4092,+00.1308,+00.3680,+01.325,+00.757,-09.780,+00.012209,-00.046072,-00.309405*68
"
1763590177.1705797,imu1_Frame,0.015187,-0.070244,-0.304844,1.294,0.938,-9.834,4.126e-05,1.234e-05,3.696e-05,"$VNYMR,-010.167,+003.808,+001.854,+00.4126,+00.1234,+00.3696,+01.294,+00.938,-09.834,+00.015187,-00.070244,-00.304844*61
"
1763590177.2014618,imu1_Frame,0.015784,-0.058168,-0.320176,0.872,0.746,-9.661,4.138e-05,1.294e-05,3.643e-05,"$VNYMR,-010.622,+003.771,+001.841,+00.4138,+00.1294,+00.3643,+00.872,+00.746,-09.661,+00.015784,-00.058168,-00.320176*69
"
1763590177.2209022,imu1_Frame,0.012327,-0.01305,-0.31801,0.99,0.745,-9.949,4.126e-05,1.2460000000000001e-05,3.722e-05,"$VNYMR,-011.076,+003.744,+001.827,+00.4126,+00.1246,+00.3722,+00.990,+00.745,-09.949,+00.012327,-00.013050,-00.318010*61
"
1763590177.25076,imu1_Frame,0.019584,-0.038622,-0.316218,1.102,1.061,-9.364,4.115e-05,1.2950000000000001e-05,3.681e-05,"$VNYMR,-011.527,+003.705,+001.816,+00.4115,+00.1295,+00.3681,+01.102,+01.061,-09.364,+00.019584,-00.038622,-00.316218*6C
"
1763590177.2706602,imu1_Frame,0.015651,-0.018384,-0.310245,0.635,1.061,-9.42,4.138e-05,1.2820000000000001e-05,3.682e-05,"$VNYMR,-011.977,+003.671,+001.808,+00.4138,+00.1282,+00.3682,+00.635,+01.061,-09.420,+00.015651,-00.018384,-00.310245*65
"
1763590177.3010404,imu1_Frame,0.018983,-0.028279,-0.313658,0.449,0.695,-10.058,4.115e-05,1.2950000000000001e-05,3.655e-05,"$VNYMR,-012.430,+003.652,+001.799,+00.4115,+00.1295,+00.3655,+00.449,+00.695,-10.058,+00.018983,-00.028279,-00.313658*6D
"
1763590177.3210015,imu1_Frame,0.014259,-0.049292,-0.311871,0.448,0.848,-9.941,4.185e-05,1.329e-05,3.723e-05,"$VNYMR,-012.880,+003.625,+001.785,+00.4185,+00.1329,+00.3723,+00.448,+00.848,-09.941,+00.014259,-00.049292,-00.311871*6B
"
1763590177.3511472,imu1_Frame,0.005629,-0.030719,-0.318669,0.443,0.848,-9.741,4.1740000000000004e-05,1.4130000000000002e-05,3.696e-05,"$VNYMR,-013.333,+003.597,+001.768,+00.4174,+00.1413,+00.3696,+00.443,+00.848,-09.741,+00.005629,-00.030719,-00.318669*6F
"
1763590177.3710938,imu1_Frame,0.006035,-0.028969,-0.316359,0.426,0.786,-9.829,4.1740000000000004e-05,1.4010000000000001e-05,3.748000000000001e-05,"$VNYMR,-013.785,+003.573,+001.747,+00.4174,+00.1401,+00.3748,+00.426,+00.786,-09.829,+00.006035,-00.028969,-00.316359*6F
"
1763590177.4009154,imu1_Frame,0.011055,-0.047916,-0.315004,0.321,0.88,-9.35,4.221e-05,1.472e-05,3.736e-05,"$VNYMR,-014.237,+003.527,+001.732,+00.4221,+00.1472,+00.3736,+00.321,+00.880,-09.350,+00.011055,-00.047916,-00.315004*6C
"
1763590177.4209769,imu1_Frame,0.012702,-0.032422,-0.317708,0.244,0.909,-9.367,4.198e-05,1.4599999999999999e-05,3.8010000000000004e-05,"$VNYMR,-014.693,+003.484,+001.719,+00.4198,+00.1460,+00.3801,+00.244,+00.909,-09.367,+00.012702,-00.032422,-00.317708*6F
"
1763590177.4512064,imu1_Frame,0.014288,-0.041709,-0.327891,0.545,0.617,-9.179,4.175e-05,1.485e-05,3.7340000000000005e-05,"$VNYMR,-015.155,+003.456,+001.706,+00.4175,+00.1485,+00.3734,+00.545,+00.617,-09.179,+00.014288,-00.041709,-00.327891*6B
"
1763590177.4710026,imu1_Frame,0.003806,-0.033595,-0.314615,0.739,1.032,-8.956,4.233e-05,1.52e-05,3.7630000000000004e-05,"$VNYMR,-015.615,+003.423,+001.683,+00.4233,+00.1520,+00.3763,+00.739,+01.032,-08.956,+00.003806,-00.033595,-00.314615*6C
"
1763590177.501354,imu1_Frame,0.005612,-0.037276,-0.321111,0.659,1.199,-9.127,4.118e-05,1.583e-05,3.77e-05,"$VNYMR,-016.082,+003.383,+001.660,+00.4118,+00.1583,+00.3770,+00.659,+01.199,-09.127,+00.005612,-00.037276,-00.321111*68
"
1763590177.5209327,imu1_Frame,0.011657,-0.028363,-0.326473,0.641,1.03,-9.336,4.152e-05,1.4979999999999999e-05,3.7590000000000004e-05,"$VNYMR,-016.549,+003.357,+001.640,+00.4152,+00.1498,+00.3759,+00.641,+01.030,-09.336,+00.011657,-00.028363,-00.326473*6F
"
1763590177.5512724,imu1_Frame,0.015457,-0.020653,-0.319261,0.728,1.117,-9.115,4.129e-05,1.5470000000000003e-05,3.732e-05,"$VNYMR,-017.012,+003.333,+001.626,+00.4129,+00.1547,+00.3732,+00.728,+01.117,-09.115,+00.015457,-00.020653,-00.319261*6D
"
1763590177.5704777,imu1_Frame,0.024898,-0.043919,-0.323075,1.031,1.2,-8.837,4.175e-05,1.5210000000000002e-05,3.721e-05,"$VNYMR,-017.474,+003.306,+001.620,+00.4175,+00.1521,+00.3721,+01.031,+01.200,-08.837,+00.024898,-00.043919,-00.323075*66
"
1763590177.60111,imu1_Frame,0.019673,-0.015423,-0.317678,1.113,0.975,-9.68,4.129e-05,1.559e-05,3.732e-05,"$VNYMR,-017.934,+003.291,+001.618,+00.4129,+00.1559,+00.3732,+01.113,+00.975,-09.680,+00.019673,-00.015423,-00.317678*6B
"
1763590177.6208978,imu1_Frame,0.025195,-0.038886,-0.318718,1.205,0.998,-9.157,4.175e-05,1.545e-05,3.721e-05,"$VNYMR,-018.397,+003.263,+001.620,+00.4175,+00.1545,+00.3721,+01.205,+00.998,-09.157,+00.025195,-00.038886,-00.318718*69
"
1763590177.6516633,imu1_Frame,0.027439,-0.043194,-0.327916,0.894,1.034,-8.951,4.152e-05,1.51e-05,3.654e-05,"$VNYMR,-018.858,+003.234,+001.626,+00.4152,+00.1510,+00.3654,+00.894,+01.034,-08.951,+00.027439,-00.043194,-00.327916*6A
"
1763590177.6715288,imu1_Frame,0.033983,-0.009628,-0.325501,0.764,0.888,-9.99,4.152e-05,1.558e-05,3.693e-05,"$VNYMR,-019.319,+003.222,+001.639,+00.4152,+00.1558,+00.3693,+00.764,+00.888,-09.990,+00.033983,-00.009628,-00.325501*66
"
1763590177.7010872,imu1_Frame,0.040426,-0.037348,-0.319244,0.499,1.04,-9.826,4.129e-05,1.607e-05,3.692e-05,"$VNYMR,-019.778,+003.197,+001.660,+00.4129,+00.1607,+00.3692,+00.499,+01.040,-09.826,+00.040426,-00.037348,-00.319244*61
"
1763590177.720306,imu1_Frame,0.036492,-0.037742,-0.322265,0.808,1.071,-9.392,4.129e-05,1.5470000000000003e-05,3.758e-05,"$VNYMR,-020.242,+003.170,+001.686,+00.4129,+00.1547,+00.3758,+00.808,+01.071,-09.392,+00.036492,-00.037742,-00.322265*6F
"
1763590177.7510054,imu1_Frame,0.032312,-0.047949,-0.321056,0.839,0.728,-9.636,4.1070000000000005e-05,1.668e-05,3.69e-05,"$VNYMR,-020.706,+003.150,+001.706,+00.4107,+00.1668,+00.3690,+00.839,+00.728,-09.636,+00.032312,-00.047949,-00.321056*6D
"
1763590177.7711263,imu1_Frame,0.02182,-0.014873,-0.31554,0.659,1.001,-10.214,4.165e-05,1.618e-05,3.588e-05,"$VNYMR,-021.170,+003.130,+001.718,+00.4165,+00.1618,+00.3588,+00.659,+01.001,-10.214,+00.021820,-00.014873,-00.315540*61
"
1763590177.8012886,imu1_Frame,0.030216,-0.019116,-0.323063,0.96,0.923,-10.451,4.095e-05,1.668e-05,3.742e-05,"$VNYMR,-021.636,+003.100,+001.737,+00.4095,+00.1668,+00.3742,+00.960,+00.923,-10.451,+00.030216,-00.019116,-00.323063*64
"
1763590177.8207936,imu1_Frame,0.034027,-0.006949,-0.326666,0.327,0.828,-10.356,4.223e-05,1.664e-05,3.7340000000000005e-05,"$VNYMR,-022.104,+003.081,+001.763,+00.4223,+00.1664,+00.3734,+00.327,+00.828,-10.356,+00.034027,-00.006949,-00.326666*67
"
1763590177.8513632,imu1_Frame,0.032907,0.022019,-0.323543,-0.144,0.884,-10.238,4.2e-05,1.665e-05,3.655e-05,"$VNYMR,-022.567,+003.069,+001.793,+00.4200,+00.1665,+00.3655,-00.144,+00.884,-10.238,+00.032907,+00.022019,-00.323543*67
"
1763590177.8711894,imu1_Frame,0.037571,-0.010328,-0.32833,-0.116,0.621,-9.952,4.235e-05,1.724e-05,3.721e-05,"$VNYMR,-023.039,+003.052,+001.826,+00.4235,+00.1724,+00.3721,-00.116,+00.621,-09.952,+00.037571,-00.010328,-00.328330*6F
"
1763590177.9009259,imu1_Frame,0.027008,-0.041627,-0.332115,0.079,0.481,-9.563,4.201e-05,1.7610000000000002e-05,3.7590000000000004e-05,"$VNYMR,-023.513,+003.050,+001.843,+00.4201,+00.1761,+00.3759,+00.079,+00.481,-09.563,+00.027008,-00.041627,-00.332115*68
"
1763590177.9208815,imu1_Frame,0.017743,-0.00125,-0.328051,0.569,0.925,-9.91,4.189e-05,1.809e-05,3.731e-05,"$VNYMR,-023.981,+003.076,+001.839,+00.4189,+00.1809,+00.3731,+00.569,+00.925,-09.910,+00.017743,-00.001250,-00.328051*64
"
1763590177.950976,imu1_Frame,0.009866,-0.002704,-0.331153,0.8,0.7,-9.818,4.2130000000000005e-05,1.881e-05,3.771e-05,"$VNYMR,-024.459,+003.081,+001.830,+00.4213,+00.1881,+00.3771,+00.800,+00.700,-09.818,+00.009866,-00.002704,-00.331153*67
"
1763590177.9709098,imu1_Frame,-0.001681,0.01591,-0.319398,0.641,1.031,-9.874,4.212e-05,1.785e-05,3.7590000000000004e-05,"$VNYMR,-024.933,+003.094,+001.817,+00.4212,+00.1785,+00.3759,+00.641,+01.031,-09.874,-00.001681,+00.015910,-00.319398*6F
"
1763590178.0009263,imu1_Frame,0.011615,0.016423,-0.32913,0.532,1.079,-9.517,4.109e-05,1.9070000000000002e-05,3.806e-05,"$VNYMR,-025.409,+003.118,+001.810,+00.4109,+00.1907,+00.3806,+00.532,+01.079,-09.517,+00.011615,+00.016423,-00.329130*64
"
1763590178.0207412,imu1_Frame,0.021978,0.021116,-0.338534,0.467,0.896,-9.568,4.202e-05,1.893e-05,3.731e-05,"$VNYMR,-025.884,+003.153,+001.808,+00.4202,+00.1893,+00.3731,+00.467,+00.896,-09.568,+00.021978,+00.021116,-00.338534*65
"
1763590178.0506191,imu1_Frame,0.013725,0.006141,-0.326561,0.612,1.12,-9.811,4.074e-05,1.992e-05,3.83e-05,"$VNYMR,-026.353,+003.199,+001.801,+00.4074,+00.1992,+00.3830,+00.612,+01.120,-09.811,+00.013725,+00.006141,-00.326561*6C
"
1763590178.070922,imu1_Frame,0.002909,0.009568,-0.322754,0.973,1.125,-9.792,4.016e-05,1.934e-05,3.8150000000000006e-05,"$VNYMR,-026.822,+003.248,+001.785,+00.4016,+00.1934,+00.3815,+00.973,+01.125,-09.792,+00.002909,+00.009568,-00.322754*6B
"
1763590178.1009152,imu1_Frame,-0.004963,0.007732,-0.331708,1.17,0.735,-9.039,4.0510000000000003e-05,1.933e-05,3.816e-05,"$VNYMR,-027.299,+003.293,+001.758,+00.4051,+00.1933,+00.3816,+01.170,+00.735,-09.039,-00.004963,+00.007732,-00.331708*6F
"
1763590178.1202486,imu1_Frame,-0.01316,0.0246,-0.330459,0.908,0.794,-9.372,4.062e-05,1.909e-05,3.686e-05,"$VNYMR,-027.772,+003.336,+001.717,+00.4062,+00.1909,+00.3686,+00.908,+00.794,-09.372,-00.013160,+00.024600,-00.330459*6F
"
1763590178.1507893,imu1_Frame,-0.010296,0.008833,-0.334185,1.272,0.941,-9.202,4.004e-05,1.9580000000000002e-05,3.775e-05,"$VNYMR,-028.245,+003.375,+001.666,+00.4004,+00.1958,+00.3775,+01.272,+00.941,-09.202,-00.010296,+00.008833,-00.334185*66
"
1763590178.1707108,imu1_Frame,-0.004006,0.013399,-0.338012,1.128,0.84,-9.405,4.062e-05,1.9450000000000002e-05,3.7380000000000005e-05,"$VNYMR,-028.722,+003.405,+001.619,+00.4062,+00.1945,+00.3738,+01.128,+00.840,-09.405,-00.004006,+00.013399,-00.338012*6E
"
1763590178.2009206,imu1_Frame,0.000705,0.037522,-0.329457,0.782,1.251,-9.825,3.969e-05,1.936e-05,3.7080000000000004e-05,"$VNYMR,-029.194,+003.430,+001.579,+00.3969,+00.1936,+00.3708,+00.782,+01.251,-09.825,+00.000705,+00.037522,-00.329457*64
"
1763590178.2208374,imu1_Frame,0.018498,-0.014388,-0.322625,1.116,1.483,-9.268,3.958e-05,1.948e-05,3.694e-05,"$VNYMR,-029.665,+003.445,+001.559,+00.3958,+00.1948,+00.3694,+01.116,+01.483,-09.268,+00.018498,-00.014388,-00.322625*61
"
1763590178.2507112,imu1_Frame,0.021261,0.004173,-0.322672,0.845,1.039,-9.496,4.0400000000000006e-05,1.994e-05,3.723e-05,"$VNYMR,-030.137,+003.457,+001.556,+00.4040,+00.1994,+00.3723,+00.845,+01.039,-09.496,+00.021261,+00.004173,-00.322672*6B
"
1763590178.2705052,imu1_Frame,0.026749,0.01117,-0.329299,0.716,0.936,-9.911,3.981e-05,2.007e-05,3.7730000000000006e-05,"$VNYMR,-030.606,+003.466,+001.562,+00.3981,+00.2007,+00.3773,+00.716,+00.936,-09.911,+00.026749,+00.011170,-00.329299*64
"
1763590178.3011951,imu1_Frame,0.031336,-0.034842,-0.323704,0.713,1.032,-9.196,4.0520000000000005e-05,2.0410000000000003e-05,3.736e-05,"$VNYMR,-031.071,+003.462,+001.569,+00.4052,+00.2041,+00.3736,+00.713,+01.032,-09.196,+00.031336,-00.034842,-00.323704*69
"
1763590178.3205583,imu1_Frame,0.017072,0.005249,-0.321869,1.01,0.827,-9.045,4.063e-05,1.9810000000000002e-05,3.6320000000000005e-05,"$VNYMR,-031.536,+003.460,+001.569,+00.4063,+00.1981,+00.3632,+01.010,+00.827,-09.045,+00.017072,+00.005249,-00.321869*6F
"
1763590178.3508,imu1_Frame,0.023913,0.002993,-0.317884,1.013,1.029,-9.759,4.0400000000000006e-05,1.994e-05,3.736e-05,"$VNYMR,-031.997,+003.462,+001.562,+00.4040,+00.1994,+00.3736,+01.013,+01.029,-09.759,+00.023913,+00.002993,-00.317884*6B
"
1763590178.3705108,imu1_Frame,0.026802,-0.015526,-0.317029,0.643,1.22,-9.83,4.0980000000000004e-05,2.0280000000000002e-05,3.712e-05,"$VNYMR,-032.457,+003.449,+001.558,+00.4098,+00.2028,+00.3712,+00.643,+01.220,-09.830,+00.026802,-00.015526,-00.317029*67
"
1763590178.4014072,imu1_Frame,0.026592,-0.002207,-0.320452,1.371,1.105,-9.89,4.063e-05,2.029e-05,3.684e-05,"$VNYMR,-032.923,+003.448,+001.563,+00.4063,+00.2029,+00.3684,+01.371,+01.105,-09.890,+00.026592,-00.002207,-00.320452*6A
"
1763590178.420728,imu1_Frame,0.031593,0.016139,-0.323462,0.704,0.937,-9.756,4.0400000000000006e-05,2.006e-05,3.762e-05,"$VNYMR,-033.388,+003.450,+001.580,+00.4040,+00.2006,+00.3762,+00.704,+00.937,-09.756,+00.031593,+00.016139,-00.323462*61
"
1763590178.4508662,imu1_Frame,0.03122,-0.008751,-0.331074,0.594,0.843,-9.113,4.0520000000000005e-05,2.053e-05,3.802e-05,"$VNYMR,-033.858,+003.438,+001.599,+00.4052,+00.2053,+00.3802,+00.594,+00.843,-09.113,+00.031220,-00.008751,-00.331074*6B
"
1763590178.4710531,imu1_Frame,0.037623,-0.017046,-0.331574,0.543,0.538,-9.776,3.982e-05,2.091e-05,3.72e-05,"$VNYMR,-034.330,+003.445,+001.614,+00.3982,+00.2091,+00.3720,+00.543,+00.538,-09.776,+00.037623,-00.017046,-00.331574*62
"
1763590178.5008054,imu1_Frame,0.037795,-0.042651,-0.324804,0.796,0.963,-9.283,4.0300000000000004e-05,2.198e-05,3.812e-05,"$VNYMR,-034.798,+003.454,+001.626,+00.4030,+00.2198,+00.3812,+00.796,+00.963,-09.283,+00.037795,-00.042651,-00.324804*61
"
1763590178.5207295,imu1_Frame,0.028364,-0.006825,-0.32632,0.909,0.957,-9.316,3.9240000000000004e-05,2.1170000000000002e-05,3.8610000000000005e-05,"$VNYMR,-035.270,+003.457,+001.636,+00.3924,+00.2117,+00.3861,+00.909,+00.957,-09.316,+00.028364,-00.006825,-00.326320*6D
"
1763590178.550776,imu1_Frame,0.030407,-0.01081,-0.331858,0.999,0.864,-9.483,3.995e-05,2.235e-05,3.811e-05,"$VNYMR,-035.745,+003.457,+001.643,+00.3995,+00.2235,+00.3811,+00.999,+00.864,-09.483,+00.030407,-00.010810,-00.331858*69
"
1763590178.570712,imu1_Frame,0.016353,0.001233,-0.324622,0.784,0.948,-9.405,3.983e-05,2.2230000000000002e-05,3.797e-05,"$VNYMR,-036.217,+003.452,+001.643,+00.3983,+00.2223,+00.3797,+00.784,+00.948,-09.405,+00.016353,+00.001233,-00.324622*67
"
1763590178.600929,imu1_Frame,0.025154,-0.002645,-0.333239,0.53,0.857,-9.523,3.914e-05,2.2850000000000003e-05,3.872e-05,"$VNYMR,-036.692,+003.453,+001.642,+00.3914,+00.2285,+00.3872,+00.530,+00.857,-09.523,+00.025154,-00.002645,-00.333239*62
"
1763590178.621018,imu1_Frame,0.024193,-0.002868,-0.334073,0.776,0.759,-9.534,3.914e-05,2.249e-05,3.7680000000000005e-05,"$VNYMR,-037.167,+003.474,+001.637,+00.3914,+00.2249,+00.3768,+00.776,+00.759,-09.534,+00.024193,-00.002868,-00.334073*6A
"
1763590178.650916,imu1_Frame,0.02004,0.025854,-0.328085,0.684,0.925,-10.127,3.914e-05,2.2250000000000002e-05,3.781e-05,"$VNYMR,-037.640,+003.498,+001.633,+00.3914,+00.2225,+00.3781,+00.684,+00.925,-10.127,+00.020040,+00.025854,-00.328085*67
"
1763590178.6707199,imu1_Frame,0.021464,0.01346,-0.328877,0.7,0.787,-10.352,3.833e-05,2.2760000000000002e-05,3.711e-05,"$VNYMR,-038.116,+003.513,+001.633,+00.3833,+00.2276,+00.3711,+00.700,+00.787,-10.352,+00.021464,+00.013460,-00.328877*66
"
1763590178.7009864,imu1_Frame,0.011746,0.016546,-0.32551,0.458,0.699,-10.209,3.903e-05,2.3100000000000002e-05,3.74e-05,"$VNYMR,-038.592,+003.533,+001.627,+00.3903,+00.2310,+00.3740,+00.458,+00.699,-10.209,+00.011746,+00.016546,-00.325510*60
"
1763590178.7206175,imu1_Frame,0.00555,0.00677,-0.331426,0.842,0.89,-10.047,3.8100000000000005e-05,2.324e-05,3.71e-05,"$VNYMR,-039.065,+003.553,+001.610,+00.3810,+00.2324,+00.3710,+00.842,+00.890,-10.047,+00.005550,+00.006770,-00.331426*60
"
1763590178.7508886,imu1_Frame,0.005088,-0.017416,-0.328088,0.883,0.767,-9.552,3.8910000000000005e-05,2.298e-05,3.753e-05,"$VNYMR,-039.540,+003.560,+001.587,+00.3891,+00.2298,+00.3753,+00.883,+00.767,-09.552,+00.005088,-00.017416,-00.328088*69
"
1763590178.770631,imu1_Frame,-0.003269,0.005352,-0.315693,0.671,0.949,-9.733,3.845e-05,2.3840000000000002e-05,3.698e-05,"$VNYMR,-040.009,+003.573,+001.559,+00.3845,+00.2384,+00.3698,+00.671,+00.949,-09.733,-00.003269,+00.005352,-00.315693*64
"
1763590178.8002589,imu1_Frame,0.008874,0.020094,-0.324241,0.797,1.102,-10.04,3.857e-05,2.4310000000000003e-05,3.685e-05,"$VNYMR,-040.478,+003.592,+001.537,+00.3857,+00.2431,+00.3685,+00.797,+01.102,-10.040,+00.008874,+00.020094,-00.324241*6F
"
1763590178.821629,imu1_Frame,0.012577,0.004025,-0.323548,0.695,0.963,-9.645,3.868e-05,2.347e-05,3.712e-05,"$VNYMR,-040.945,+003.591,+001.523,+00.3868,+00.2347,+00.3712,+00.695,+00.963,-09.645,+00.012577,+00.004025,-00.323548*69
"
1763590178.8510358,imu1_Frame,0.016599,-0.019512,-0.320652,1.056,1.001,-9.055,3.926e-05,2.357e-05,3.675e-05,"$VNYMR,-041.412,+003.586,+001.515,+00.3926,+00.2357,+00.3675,+01.056,+01.001,-09.055,+00.016599,-00.019512,-00.320652*69
"
1763590178.8711483,imu1_Frame,0.021288,-0.01703,-0.324226,0.981,1.071,-9.407,3.845e-05,2.336e-05,3.672000000000001e-05,"$VNYMR,-041.875,+003.596,+001.506,+00.3845,+00.2336,+00.3672,+00.981,+01.071,-09.407,+00.021288,-00.017030,-00.324226*6E
"
1763590178.9011753,imu1_Frame,0.019796,0.011015,-0.328945,0.93,0.698,-9.676,3.903e-05,2.3100000000000002e-05,3.648e-05,"$VNYMR,-042.344,+003.606,+001.499,+00.3903,+00.2310,+00.3648,+00.930,+00.698,-09.676,+00.019796,+00.011015,-00.328945*6D
"
1763590178.9211016,imu1_Frame,0.022693,-0.018315,-0.327962,1.369,1.129,-9.219,3.775e-05,2.362e-05,3.6950000000000004e-05,"$VNYMR,-042.812,+003.613,+001.489,+00.3775,+00.2362,+00.3695,+01.369,+01.129,-09.219,+00.022693,-00.018315,-00.327962*66
"
1763590178.950254,imu1_Frame,0.019407,0.000343,-0.327641,1.316,1.227,-9.549,3.821e-05,2.3480000000000002e-05,3.71e-05,"$VNYMR,-043.279,+003.629,+001.478,+00.3821,+00.2348,+00.3710,+01.316,+01.227,-09.549,+00.019407,+00.000343,-00.327641*6F
"
1763590178.9706445,imu1_Frame,0.018573,0.010176,-0.329425,0.791,0.904,-9.541,3.833e-05,2.3840000000000002e-05,3.684e-05,"$VNYMR,-043.750,+003.631,+001.472,+00.3833,+00.2384,+00.3684,+00.791,+00.904,-09.541,+00.018573,+00.010176,-00.329425*6C
"
1763590178.9951792,imu1_Frame,0.022527,-0.009912,-0.330751,0.783,1.058,-9.373,3.821e-05,2.3480000000000002e-05,3.7630000000000004e-05,"$VNYMR,-044.220,+003.631,+001.466,+00.3821,+00.2348,+00.3763,+00.783,+01.058,-09.373,+00.022527,-00.009912,-00.330751*66
"
1763590179.0206952,imu1_Frame,0.029678,-0.025491,-0.331018,0.844,1.107,-9.523,3.788e-05,2.457e-05,3.721e-05,"$VNYMR,-044.686,+003.635,+001.463,+00.3788,+00.2457,+00.3721,+00.844,+01.107,-09.523,+00.029678,-00.025491,-00.331018*61
"
1763590179.0512886,imu1_Frame,0.019198,0.013878,-0.324939,1.09,0.953,-9.573,3.799e-05,2.445e-05,3.721e-05,"$VNYMR,-045.155,+003.639,+001.460,+00.3799,+00.2445,+00.3721,+01.090,+00.953,-09.573,+00.019198,+00.013878,-00.324939*64
"
1763590179.0709875,imu1_Frame,0.023091,0.00165,-0.32447,0.422,0.937,-9.655,3.66e-05,2.485e-05,3.7940000000000006e-05,"$VNYMR,-045.624,+003.635,+001.455,+00.3660,+00.2485,+00.3794,+00.422,+00.937,-09.655,+00.023091,+00.001650,-00.324470*65
"
1763590179.100612,imu1_Frame,0.029267,-0.032797,-0.333449,0.588,1.048,-9.36,3.73e-05,2.531e-05,3.7180000000000007e-05,"$VNYMR,-046.095,+003.626,+001.453,+00.3730,+00.2531,+00.3718,+00.588,+01.048,-09.360,+00.029267,-00.032797,-00.333449*63
"
1763590179.1205275,imu1_Frame,0.015351,0.01978,-0.323985,0.98,1.017,-9.769,3.684e-05,2.556e-05,3.7680000000000005e-05,"$VNYMR,-046.568,+003.658,+001.441,+00.3684,+00.2556,+00.3768,+00.980,+01.017,-09.769,+00.015351,+00.019780,-00.323985*6B
"
1763590179.150896,imu1_Frame,0.02453,-0.005001,-0.331876,1.142,1.036,-9.564,3.6490000000000005e-05,2.6410000000000003e-05,3.7e-05,"$VNYMR,-047.042,+003.661,+001.436,+00.3649,+00.2641,+00.3700,+01.142,+01.036,-09.564,+00.024530,-00.005001,-00.331876*64
"
1763590179.1709867,imu1_Frame,0.016761,0.021358,-0.33203,0.852,1.011,-9.521,3.6370000000000006e-05,2.5810000000000002e-05,3.726e-05,"$VNYMR,-047.519,+003.659,+001.431,+00.3637,+00.2581,+00.3726,+00.852,+01.011,-09.521,+00.016761,+00.021358,-00.332030*6D
"
1763590179.2011786,imu1_Frame,0.017528,0.029569,-0.327437,0.861,0.705,-10.203,3.532e-05,2.5480000000000003e-05,3.696e-05,"$VNYMR,-047.997,+003.658,+001.426,+00.3532,+00.2548,+00.3696,+00.861,+00.705,-10.203,+00.017528,+00.029569,-00.327437*60
"
1763590179.22067,imu1_Frame,0.018031,-0.007037,-0.327427,0.459,0.804,-9.682,3.614e-05,2.618e-05,3.659e-05,"$VNYMR,-048.475,+003.642,+001.423,+00.3614,+00.2618,+00.3659,+00.459,+00.804,-09.682,+00.018031,-00.007037,-00.327427*69
"
1763590179.2509193,imu1_Frame,0.019857,-0.023737,-0.336832,0.394,0.814,-9.549,3.6030000000000006e-05,2.631e-05,3.672000000000001e-05,"$VNYMR,-048.952,+003.628,+001.420,+00.3603,+00.2631,+00.3672,+00.394,+00.814,-09.549,+00.019857,-00.023737,-00.336832*69
"
1763590179.2706509,imu1_Frame,0.02156,-0.035992,-0.332714,0.623,0.692,-9.813,3.673e-05,2.6410000000000003e-05,3.675e-05,"$VNYMR,-049.426,+003.624,+001.411,+00.3673,+00.2641,+00.3675,+00.623,+00.692,-09.813,+00.021560,-00.035992,-00.332714*6F
"
1763590179.3020873,imu1_Frame,0.004076,-0.005956,-0.324973,0.818,0.984,-9.661,3.6270000000000003e-05,2.7139999999999998e-05,3.567e-05,"$VNYMR,-049.898,+003.615,+001.395,+00.3627,+00.2714,+00.3567,+00.818,+00.984,-09.661,+00.004076,-00.005956,-00.324973*6C
"
1763590179.3208027,imu1_Frame,0.009248,-0.015976,-0.327678,1.028,0.974,-9.309,3.626e-05,2.6660000000000002e-05,3.659e-05,"$VNYMR,-050.370,+003.602,+001.381,+00.3626,+00.2666,+00.3659,+01.028,+00.974,-09.309,+00.009248,-00.015976,-00.327678*69
"
1763590179.3509972,imu1_Frame,0.019938,-0.022765,-0.330012,0.735,1.083,-9.229,3.591e-05,2.667e-05,3.645e-05,"$VNYMR,-050.839,+003.603,+001.373,+00.3591,+00.2667,+00.3645,+00.735,+01.083,-09.229,+00.019938,-00.022765,-00.330012*60
"
1763590179.3711526,imu1_Frame,0.028329,0.006553,-0.326132,0.871,1.379,-9.758,3.638e-05,2.6300000000000002e-05,3.699e-05,"$VNYMR,-051.307,+003.605,+001.377,+00.3638,+00.2630,+00.3699,+00.871,+01.379,-09.758,+00.028329,+00.006553,-00.326132*67
"
1763590179.4014556,imu1_Frame,0.038131,-0.012245,-0.326109,0.652,1.056,-9.789,3.545e-05,2.6440000000000004e-05,3.6950000000000004e-05,"$VNYMR,-051.777,+003.595,+001.394,+00.3545,+00.2644,+00.3695,+00.652,+01.056,-09.789,+00.038131,-00.012245,-00.326109*69
"
1763590179.420956,imu1_Frame,0.025288,-0.012847,-0.32279,0.764,1.033,-9.566,3.6030000000000006e-05,2.607e-05,3.6190000000000004e-05,"$VNYMR,-052.249,+003.595,+001.407,+00.3603,+00.2607,+00.3619,+00.764,+01.033,-09.566,+00.025288,-00.012847,-00.322790*6E
"
1763590179.4508183,imu1_Frame,0.023398,2.8e-05,-0.328293,0.998,1.319,-9.544,3.533e-05,2.633e-05,3.682e-05,"$VNYMR,-052.721,+003.602,+001.414,+00.3533,+00.2633,+00.3682,+00.998,+01.319,-09.544,+00.023398,+00.000028,-00.328293*67
"
1763590179.4703643,imu1_Frame,0.028344,-0.019408,-0.335443,0.78,0.929,-9.38,3.544e-05,2.5960000000000002e-05,3.6700000000000004e-05,"$VNYMR,-053.201,+003.598,+001.421,+00.3544,+00.2596,+00.3670,+00.780,+00.929,-09.380,+00.028344,-00.019408,-00.335443*62
"
1763590179.5006878,imu1_Frame,0.022164,-0.005547,-0.335812,0.534,0.906,-10.11,3.474e-05,2.598e-05,3.6670000000000006e-05,"$VNYMR,-053.678,+003.619,+001.420,+00.3474,+00.2598,+00.3667,+00.534,+00.906,-10.110,+00.022164,-00.005547,-00.335812*6F
"
1763590179.520971,imu1_Frame,0.023183,0.004559,-0.331437,0.783,1.071,-9.952,3.475e-05,2.658e-05,3.745e-05,"$VNYMR,-054.154,+003.639,+001.421,+00.3475,+00.2658,+00.3745,+00.783,+01.071,-09.952,+00.023183,+00.004559,-00.331437*62
"
1763590179.5506248,imu1_Frame,0.016684,0.017639,-0.339179,0.925,0.69,-9.557,3.464e-05,2.694e-05,3.7180000000000007e-05,"$VNYMR,-054.641,+003.647,+001.420,+00.3464,+00.2694,+00.3718,+00.925,+00.690,-09.557,+00.016684,+00.017639,-00.339179*64
"
1763590179.5709944,imu1_Frame,0.008043,0.02916,-0.328649,0.77,0.764,-9.947,3.418e-05,2.768e-05,3.741e-05,"$VNYMR,-055.121,+003.665,+001.407,+00.3418,+00.2768,+00.3741,+00.770,+00.764,-09.947,+00.008043,+00.029160,-00.328649*6D
"
1763590179.6009889,imu1_Frame,0.008935,-0.000377,-0.331733,0.759,1.04,-9.702,3.4410000000000004e-05,2.779e-05,3.7550000000000005e-05,"$VNYMR,-055.599,+003.678,+001.390,+00.3441,+00.2779,+00.3755,+00.759,+01.040,-09.702,+00.008935,-00.000377,-00.331733*67
"
1763590179.6209333,imu1_Frame,0.013643,-0.03558,-0.337631,0.991,0.721,-9.473,3.417e-05,2.7560000000000004e-05,3.781e-05,"$VNYMR,-056.082,+003.681,+001.376,+00.3417,+00.2756,+00.3781,+00.991,+00.721,-09.473,+00.013643,-00.035580,-00.337631*65
"
1763590179.6507666,imu1_Frame,0.018702,-0.01454,-0.333954,1.064,0.934,-9.473,3.348e-05,2.8420000000000002e-05,3.751e-05,"$VNYMR,-056.558,+003.687,+001.362,+00.3348,+00.2842,+00.3751,+01.064,+00.934,-09.473,+00.018702,-00.014540,-00.333954*6E
"
1763590179.6703668,imu1_Frame,0.01888,-0.018431,-0.332783,0.883,1.136,-9.353,3.3600000000000004e-05,2.8780000000000002e-05,3.7250000000000004e-05,"$VNYMR,-057.033,+003.681,+001.350,+00.3360,+00.2878,+00.3725,+00.883,+01.136,-09.353,+00.018880,-00.018431,-00.332783*65
"
1763590179.7011566,imu1_Frame,0.023219,0.002275,-0.330925,1.343,1.125,-9.507,3.2800000000000004e-05,2.9880000000000002e-05,3.7330000000000003e-05,"$VNYMR,-057.510,+003.683,+001.345,+00.3280,+00.2988,+00.3733,+01.343,+01.125,-09.507,+00.023219,+00.002275,-00.330925*6B
"
1763590179.7207682,imu1_Frame,0.037767,-0.032655,-0.335517,0.281,1.08,-9.135,3.349e-05,2.9140000000000002e-05,3.671e-05,"$VNYMR,-057.986,+003.672,+001.349,+00.3349,+00.2914,+00.3671,+00.281,+01.080,-09.135,+00.037767,-00.032655,-00.335517*6B
"
1763590179.7508712,imu1_Frame,0.03107,-0.005709,-0.329293,0.663,1.214,-9.201,3.303e-05,2.9270000000000003e-05,3.6950000000000004e-05,"$VNYMR,-058.458,+003.667,+001.356,+00.3303,+00.2927,+00.3695,+00.663,+01.214,-09.201,+00.031070,-00.005709,-00.329293*6A
"
1763590179.7708752,imu1_Frame,0.029886,-0.012504,-0.328674,0.909,0.795,-9.618,3.3950000000000005e-05,2.853e-05,3.7130000000000005e-05,"$VNYMR,-058.935,+003.684,+001.357,+00.3395,+00.2853,+00.3713,+00.909,+00.795,-09.618,+00.029886,-00.012504,-00.328674*6D
"
1763590179.800796,imu1_Frame,0.017629,-0.008085,-0.326672,1.16,1.096,-9.62,3.325e-05,2.879e-05,3.697e-05,"$VNYMR,-059.410,+003.696,+001.351,+00.3325,+00.2879,+00.3697,+01.160,+01.096,-09.620,+00.017629,-00.008085,-00.326672*6C
"
1763590179.820477,imu1_Frame,0.021906,0.022431,-0.332376,1.119,1.064,-9.953,3.279e-05,2.8920000000000004e-05,3.7340000000000005e-05,"$VNYMR,-059.887,+003.705,+001.350,+00.3279,+00.2892,+00.3734,+01.119,+01.064,-09.953,+00.021906,+00.022431,-00.332376*6F
"
1763590179.851191,imu1_Frame,0.029302,-0.01993,-0.335742,0.826,0.698,-10.153,3.291e-05,2.904e-05,3.669e-05,"$VNYMR,-060.366,+003.708,+001.356,+00.3291,+00.2904,+00.3669,+00.826,+00.698,-10.153,+00.029302,-00.019930,-00.335742*6B
"
1763590179.8708029,imu1_Frame,0.022918,0.017331,-0.329269,0.681,1.22,-10.202,3.232e-05,2.8570000000000003e-05,3.706e-05,"$VNYMR,-060.841,+003.717,+001.363,+00.3232,+00.2857,+00.3706,+00.681,+01.220,-10.202,+00.022918,+00.017331,-00.329269*61
"
1763590179.9006908,imu1_Frame,0.037007,-0.021405,-0.335046,0.558,1.126,-9.866,3.2550000000000005e-05,2.8080000000000002e-05,3.721e-05,"$VNYMR,-061.320,+003.713,+001.377,+00.3255,+00.2808,+00.3721,+00.558,+01.126,-09.866,+00.037007,-00.021405,-00.335046*63
"
1763590179.9211016,imu1_Frame,0.035389,-0.019943,-0.332915,0.556,1.192,-9.598,3.267e-05,2.8560000000000004e-05,3.721e-05,"$VNYMR,-061.798,+003.709,+001.392,+00.3267,+00.2856,+00.3721,+00.556,+01.192,-09.598,+00.035389,-00.019943,-00.332915*68
"
1763590179.9508755,imu1_Frame,0.038381,-0.014219,-0.329427,0.79,1.178,-9.756,3.244e-05,2.8810000000000004e-05,3.707e-05,"$VNYMR,-062.273,+003.718,+001.409,+00.3244,+00.2881,+00.3707,+00.790,+01.178,-09.756,+00.038381,-00.014219,-00.329427*67
"
1763590179.9710176,imu1_Frame,0.029212,-0.011517,-0.334384,0.737,0.705,-9.541,3.29e-05,2.8199999999999998e-05,3.643e-05,"$VNYMR,-062.754,+003.714,+001.425,+00.3290,+00.2820,+00.3643,+00.737,+00.705,-09.541,+00.029212,-00.011517,-00.334384*67
"
1763590180.0020423,imu1_Frame,0.020884,0.02399,-0.329134,0.951,0.988,-9.461,3.151e-05,2.907e-05,3.7940000000000006e-05,"$VNYMR,-063.231,+003.723,+001.429,+00.3151,+00.2907,+00.3794,+00.951,+00.988,-09.461,+00.020884,+00.023990,-00.329134*62
"
1763590180.0206592,imu1_Frame,0.023757,-0.032337,-0.333227,0.593,1.12,-9.221,3.2200000000000003e-05,2.833e-05,3.68e-05,"$VNYMR,-063.709,+003.712,+001.427,+00.3220,+00.2833,+00.3680,+00.593,+01.120,-09.221,+00.023757,-00.032337,-00.333227*65
"
1763590180.0519567,imu1_Frame,0.013777,-0.007456,-0.334217,0.931,0.73,-9.282,3.186e-05,2.9060000000000003e-05,3.7430000000000006e-05,"$VNYMR,-064.192,+003.709,+001.418,+00.3186,+00.2906,+00.3743,+00.931,+00.730,-09.282,+00.013777,-00.007456,-00.334217*6E
"
1763590180.0707016,imu1_Frame,0.019383,-0.023906,-0.333426,0.852,0.903,-9.706,3.116e-05,2.8960000000000004e-05,3.7930000000000004e-05,"$VNYMR,-064.671,+003.709,+001.404,+00.3116,+00.2896,+00.3793,+00.852,+00.903,-09.706,+00.019383,-00.023906,-00.333426*6E
"
1763590180.1008904,imu1_Frame,0.007939,-0.028209,-0.332924,0.761,1.036,-9.211,3.1400000000000004e-05,2.944e-05,3.728e-05,"$VNYMR,-065.148,+003.691,+001.384,+00.3140,+00.2944,+00.3728,+00.761,+01.036,-09.211,+00.007939,-00.028209,-00.332924*67
"
1763590180.1208827,imu1_Frame,0.010726,-0.008517,-0.331671,1.421,0.865,-9.482,3.0590000000000004e-05,2.9820000000000002e-05,3.776e-05,"$VNYMR,-065.628,+003.676,+001.365,+00.3059,+00.2982,+00.3776,+01.421,+00.865,-09.482,+00.010726,-00.008517,-00.331671*6D
"
1763590180.1510117,imu1_Frame,0.015194,-0.039081,-0.331486,0.97,1.043,-9.224,3.117e-05,3.016e-05,3.752e-05,"$VNYMR,-066.102,+003.653,+001.350,+00.3117,+00.3016,+00.3752,+00.970,+01.043,-09.224,+00.015194,-00.039081,-00.331486*6F
"
1763590180.1705723,imu1_Frame,0.023758,-0.019571,-0.331883,1.222,1.355,-9.05,3.0240000000000002e-05,3.0550000000000004e-05,3.735e-05,"$VNYMR,-066.573,+003.636,+001.345,+00.3024,+00.3055,+00.3735,+01.222,+01.355,-09.050,+00.023758,-00.019571,-00.331883*67
"
1763590180.2004068,imu1_Frame,0.037775,-0.010522,-0.328367,0.933,0.928,-9.66,2.9900000000000002e-05,3.1400000000000004e-05,3.838e-05,"$VNYMR,-067.042,+003.633,+001.352,+00.2990,+00.3140,+00.3838,+00.933,+00.928,-09.660,+00.037775,-00.010522,-00.328367*60
"
1763590180.2205694,imu1_Frame,0.029769,0.013613,-0.318624,0.889,1.281,-9.73,3.036e-05,3.115e-05,3.748000000000001e-05,"$VNYMR,-067.510,+003.635,+001.367,+00.3036,+00.3115,+00.3748,+00.889,+01.281,-09.730,+00.029769,+00.013613,-00.318624*64
"
1763590180.250463,imu1_Frame,0.040379,-0.002372,-0.325538,0.939,1.147,-9.796,2.9780000000000003e-05,3.092e-05,3.8240000000000007e-05,"$VNYMR,-067.981,+003.634,+001.392,+00.2978,+00.3092,+00.3824,+00.939,+01.147,-09.796,+00.040379,-00.002372,-00.325538*63
"
1763590180.2708735,imu1_Frame,0.033104,-0.021798,-0.329879,1.13,0.853,-9.581,2.9900000000000002e-05,3.08e-05,3.7330000000000003e-05,"$VNYMR,-068.454,+003.648,+001.412,+00.2990,+00.3080,+00.3733,+01.130,+00.853,-09.581,+00.033104,-00.021798,-00.329879*61
"
1763590180.3017454,imu1_Frame,0.023545,0.019411,-0.321033,1.204,1.136,-10.02,3.001e-05,3.104e-05,3.72e-05,"$VNYMR,-068.923,+003.675,+001.421,+00.3001,+00.3104,+00.3720,+01.204,+01.136,-10.020,+00.023545,+00.019411,-00.321033*65
"
1763590180.3206313,imu1_Frame,0.022021,-0.001107,-0.329687,1.019,0.782,-9.961,2.9900000000000002e-05,3.104e-05,3.7330000000000003e-05,"$VNYMR,-069.399,+003.682,+001.428,+00.2990,+00.3104,+00.3733,+01.019,+00.782,-09.961,+00.022021,-00.001107,-00.329687*64
"
1763590180.3514342,imu1_Frame,0.012182,0.011796,-0.329649,0.821,0.797,-9.823,2.989e-05,3.056e-05,3.7460000000000004e-05,"$VNYMR,-069.876,+003.694,+001.427,+00.2989,+00.3056,+00.3746,+00.821,+00.797,-09.823,+00.012182,+00.011796,-00.329649*6B
"
1763590180.3709412,imu1_Frame,0.029713,-0.009307,-0.333299,0.72,1.028,-9.948,2.8960000000000004e-05,3.046e-05,3.782e-05,"$VNYMR,-070.353,+003.704,+001.427,+00.2896,+00.3046,+00.3782,+00.720,+01.028,-09.948,+00.029713,-00.009307,-00.333299*66
"
1763590180.4012017,imu1_Frame,0.032568,-0.020825,-0.333897,0.565,0.917,-10.132,2.9540000000000002e-05,3.045e-05,3.758e-05,"$VNYMR,-070.831,+003.706,+001.432,+00.2954,+00.3045,+00.3758,+00.565,+00.917,-10.132,+00.032568,-00.020825,-00.333897*6E
"
1763590180.4204762,imu1_Frame,0.03436,-0.011528,-0.331229,0.937,0.942,-9.681,2.8499999999999998e-05,3.072e-05,3.8190000000000005e-05,"$VNYMR,-071.309,+003.707,+001.442,+00.2850,+00.3072,+00.3819,+00.937,+00.942,-09.681,+00.034360,-00.011528,-00.331229*69
"
1763590180.4510698,imu1_Frame,0.028457,-0.045861,-0.33252,1.068,0.962,-9.194,2.943e-05,3.045e-05,3.837e-05,"$VNYMR,-071.782,+003.697,+001.447,+00.2943,+00.3045,+00.3837,+01.068,+00.962,-09.194,+00.028457,-00.045861,-00.332520*69
"
1763590180.4708762,imu1_Frame,0.013581,0.00427,-0.327501,1.156,0.673,-9.577,2.8380000000000003e-05,3.06e-05,3.779e-05,"$VNYMR,-072.257,+003.696,+001.441,+00.2838,+00.3060,+00.3779,+01.156,+00.673,-09.577,+00.013581,+00.004270,-00.327501*69
"
1763590180.5009565,imu1_Frame,0.014708,-0.017197,-0.326664,0.889,0.82,-9.658,2.8620000000000004e-05,3.095e-05,3.806e-05,"$VNYMR,-072.728,+003.678,+001.428,+00.2862,+00.3095,+00.3806,+00.889,+00.820,-09.658,+00.014708,-00.017197,-00.326664*6E
"
1763590180.5208826,imu1_Frame,0.007958,-0.014907,-0.327998,0.778,1.01,-9.333,2.803e-05,3.0730000000000006e-05,3.778000000000001e-05,"$VNYMR,-073.198,+003.656,+001.412,+00.2803,+00.3073,+00.3778,+00.778,+01.010,-09.333,+00.007958,-00.014907,-00.327998*6B
"
1763590180.5508099,imu1_Frame,0.02128,-0.028843,-0.327607,0.929,0.827,-9.632,2.8270000000000002e-05,3.156e-05,3.804e-05,"$VNYMR,-073.668,+003.645,+001.402,+00.2827,+00.3156,+00.3804,+00.929,+00.827,-09.632,+00.021280,-00.028843,-00.327607*6A
"
1763590180.5709276,imu1_Frame,0.016296,-0.010871,-0.323098,0.439,0.813,-10.042,2.803e-05,3.0850000000000004e-05,3.817e-05,"$VNYMR,-074.135,+003.628,+001.396,+00.2803,+00.3085,+00.3817,+00.439,+00.813,-10.042,+00.016296,-00.010871,-00.323098*67
"
1763590180.6008115,imu1_Frame,0.019714,0.003958,-0.324338,0.751,0.892,-9.971,2.7570000000000002e-05,3.122e-05,3.867e-05,"$VNYMR,-074.603,+003.613,+001.390,+00.2757,+00.3122,+00.3867,+00.751,+00.892,-09.971,+00.019714,+00.003958,-00.324338*6B
"
1763590180.620929,imu1_Frame,0.026824,-0.03453,-0.329669,0.477,0.751,-9.66,2.769e-05,3.1580000000000006e-05,3.894e-05,"$VNYMR,-075.072,+003.601,+001.387,+00.2769,+00.3158,+00.3894,+00.477,+00.751,-09.660,+00.026824,-00.034530,-00.329669*67
"
1763590180.6508796,imu1_Frame,0.010396,0.011798,-0.323755,0.89,1.08,-9.779,2.758e-05,3.194e-05,3.958e-05,"$VNYMR,-075.540,+003.606,+001.375,+00.2758,+00.3194,+00.3958,+00.890,+01.080,-09.779,+00.010396,+00.011798,-00.323755*6E
"
1763590180.6704144,imu1_Frame,0.010958,0.000535,-0.328236,0.597,0.988,-10.09,2.7350000000000004e-05,3.267e-05,3.957e-05,"$VNYMR,-076.010,+003.602,+001.359,+00.2735,+00.3267,+00.3957,+00.597,+00.988,-10.090,+00.010958,+00.000535,-00.328236*68
"
1763590180.700886,imu1_Frame,-0.000664,0.004082,-0.326432,0.587,0.881,-9.544,2.758e-05,3.2300000000000006e-05,3.919e-05,"$VNYMR,-076.483,+003.608,+001.337,+00.2758,+00.3230,+00.3919,+00.587,+00.881,-09.544,-00.000664,+00.004082,-00.326432*6C
"
1763590180.7233684,imu1_Frame,0.012422,0.018114,-0.329042,0.969,1.225,-9.523,2.6650000000000004e-05,3.2090000000000006e-05,3.902e-05,"$VNYMR,-076.955,+003.631,+001.317,+00.2665,+00.3209,+00.3902,+00.969,+01.225,-09.523,+00.012422,+00.018114,-00.329042*6F
"
1763590180.7504828,imu1_Frame,0.021845,4.5e-05,-0.33228,0.823,1.037,-9.37,2.723e-05,3.243e-05,3.851e-05,"$VNYMR,-077.431,+003.638,+001.307,+00.2723,+00.3243,+00.3851,+00.823,+01.037,-09.370,+00.021845,+00.000045,-00.332280*6A
"
1763590180.7707262,imu1_Frame,0.030644,0.018944,-0.331786,1.009,1.292,-9.405,2.6650000000000004e-05,3.245e-05,3.915e-05,"$VNYMR,-077.909,+003.664,+001.312,+00.2665,+00.3245,+00.3915,+01.009,+01.292,-09.405,+00.030644,+00.018944,-00.331786*62
"
1763590180.8017545,imu1_Frame,0.045026,-0.011543,-0.332052,1.336,1.199,-9.29,2.677e-05,3.304e-05,3.915e-05,"$VNYMR,-078.383,+003.689,+001.334,+00.2677,+00.3304,+00.3915,+01.336,+01.199,-09.290,+00.045026,-00.011543,-00.332052*61
"
1763590180.8206787,imu1_Frame,0.028589,0.022187,-0.336321,1.17,0.687,-9.487,2.642e-05,3.2460000000000004e-05,3.848e-05,"$VNYMR,-078.861,+003.713,+001.351,+00.2642,+00.3246,+00.3848,+01.170,+00.687,-09.487,+00.028589,+00.022187,-00.336321*64
"
1763590180.8511443,imu1_Frame,0.019835,0.027549,-0.329804,1.141,0.819,-9.706,2.595e-05,3.211e-05,3.938e-05,"$VNYMR,-079.332,+003.738,+001.353,+00.2595,+00.3211,+00.3938,+01.141,+00.819,-09.706,+00.019835,+00.027549,-00.329804*66
"
1763590180.8707795,imu1_Frame,0.012956,-0.040311,-0.330045,1.239,0.934,-9.287,2.6410000000000003e-05,3.186e-05,3.822e-05,"$VNYMR,-079.802,+003.745,+001.338,+00.2641,+00.3186,+00.3822,+01.239,+00.934,-09.287,+00.012956,-00.040311,-00.330045*6C
"
1763590180.9008482,imu1_Frame,0.003949,-0.00367,-0.323599,1.306,0.883,-9.823,2.618e-05,3.186e-05,3.8610000000000005e-05,"$VNYMR,-080.269,+003.762,+001.309,+00.2618,+00.3186,+00.3861,+01.306,+00.883,-09.823,+00.003949,-00.003670,-00.323599*68
"
1763590180.9207838,imu1_Frame,0.013446,-0.017168,-0.321906,1.4,0.96,-9.803,2.525e-05,3.273e-05,3.935e-05,"$VNYMR,-080.733,+003.762,+001.284,+00.2525,+00.3273,+00.3935,+01.400,+00.960,-09.803,+00.013446,-00.017168,-00.321906*6D
"
1763590180.9506977,imu1_Frame,0.010568,-0.007277,-0.319539,1.137,1.167,-9.619,2.618e-05,3.1740000000000004e-05,3.9000000000000006e-05,"$VNYMR,-081.196,+003.747,+001.265,+00.2618,+00.3174,+00.3900,+01.137,+01.167,-09.619,+00.010568,-00.007277,-00.319539*61
"
1763590180.97125,imu1_Frame,0.023998,-0.00636,-0.321083,1.257,0.937,-10.128,2.583e-05,3.175e-05,3.951e-05,"$VNYMR,-081.659,+003.740,+001.261,+00.2583,+00.3175,+00.3951,+01.257,+00.937,-10.128,+00.023998,-00.006360,-00.321083*6C
"
1763590181.0004811,imu1_Frame,0.032536,-0.046067,-0.320008,1.13,1.079,-9.54,2.5590000000000004e-05,3.164e-05,3.872e-05,"$VNYMR,-082.118,+003.720,+001.271,+00.2559,+00.3164,+00.3872,+01.130,+01.079,-09.540,+00.032536,-00.046067,-00.320008*65
"
1763590181.0211132,imu1_Frame,0.041515,-0.004052,-0.328816,1.069,1.031,-9.706,2.5130000000000005e-05,3.177e-05,3.948e-05,"$VNYMR,-082.582,+003.700,+001.297,+00.2513,+00.3177,+00.3948,+01.069,+01.031,-09.706,+00.041515,-00.004052,-00.328816*67
"
1763590181.0510073,imu1_Frame,0.047909,-0.010186,-0.326646,1.014,0.804,-9.874,2.537e-05,3.212e-05,3.8440000000000005e-05,"$VNYMR,-083.048,+003.683,+001.330,+00.2537,+00.3212,+00.3844,+01.014,+00.804,-09.874,+00.047909,-00.010186,-00.326646*68
"
1763590181.0710652,imu1_Frame,0.04173,-0.013203,-0.325528,1.07,1.149,-9.433,2.5600000000000002e-05,3.212e-05,3.911e-05,"$VNYMR,-083.511,+003.663,+001.362,+00.2560,+00.3212,+00.3911,+01.070,+01.149,-09.433,+00.041730,-00.013203,-00.325528*60
"
1763590181.101112,imu1_Frame,0.047668,-0.015748,-0.328153,0.721,0.863,-9.318,2.5140000000000003e-05,3.2850000000000006e-05,3.9340000000000006e-05,"$VNYMR,-083.979,+003.646,+001.397,+00.2514,+00.3285,+00.3934,+00.721,+00.863,-09.318,+00.047668,-00.015748,-00.328153*6A
"
1763590181.120842,imu1_Frame,0.03697,-0.024831,-0.328332,0.433,0.77,-9.44,2.573e-05,3.3310000000000005e-05,3.8700000000000006e-05,"$VNYMR,-084.449,+003.643,+001.422,+00.2573,+00.3331,+00.3870,+00.433,+00.770,-09.440,+00.036970,-00.024831,-00.328332*60
"
1763590181.1508915,imu1_Frame,0.030189,0.006073,-0.323252,0.845,1.074,-9.537,2.537e-05,3.308e-05,3.8950000000000005e-05,"$VNYMR,-084.917,+003.654,+001.438,+00.2537,+00.3308,+00.3895,+00.845,+01.074,-09.537,+00.030189,+00.006073,-00.323252*68
"
1763590181.1706944,imu1_Frame,0.030254,-0.014291,-0.330822,0.917,0.8,-9.348,2.572e-05,3.319e-05,3.871e-05,"$VNYMR,-085.393,+003.652,+001.452,+00.2572,+00.3319,+00.3871,+00.917,+00.800,-09.348,+00.030254,-00.014291,-00.330822*6B
"
1763590181.2014692,imu1_Frame,0.020563,0.018223,-0.332348,0.818,0.811,-9.371,2.5380000000000004e-05,3.368e-05,3.921e-05,"$VNYMR,-085.866,+003.670,+001.455,+00.2538,+00.3368,+00.3921,+00.818,+00.811,-09.371,+00.020563,+00.018223,-00.332348*61
"
1763590181.2208855,imu1_Frame,0.025164,0.008314,-0.330607,0.893,1.035,-9.525,2.526e-05,3.3560000000000004e-05,3.973e-05,"$VNYMR,-086.337,+003.690,+001.457,+00.2526,+00.3356,+00.3973,+00.893,+01.035,-09.525,+00.025164,+00.008314,-00.330607*61
"
1763590181.2508507,imu1_Frame,0.015884,0.008961,-0.330977,0.464,0.597,-9.563,2.5030000000000003e-05,3.393e-05,3.88e-05,"$VNYMR,-086.812,+003.700,+001.457,+00.2503,+00.3393,+00.3880,+00.464,+00.597,-09.563,+00.015884,+00.008961,-00.330977*68
"
1763590181.270804,imu1_Frame,0.022569,0.005702,-0.330217,0.693,0.806,-9.489,2.3990000000000002e-05,3.4320000000000003e-05,3.954e-05,"$VNYMR,-087.283,+003.732,+001.454,+00.2399,+00.3432,+00.3954,+00.693,+00.806,-09.489,+00.022569,+00.005702,-00.330217*63
"
1763590181.301526,imu1_Frame,0.034094,-0.067252,-0.33225,1.001,0.998,-9.014,2.3400000000000003e-05,3.41e-05,3.926e-05,"$VNYMR,-087.754,+003.750,+001.456,+00.2340,+00.3410,+00.3926,+01.001,+00.998,-09.014,+00.034094,-00.067252,-00.332250*62
"
1763590181.3205566,imu1_Frame,0.018947,0.031423,-0.326853,1.131,0.802,-9.311,2.433e-05,3.383e-05,3.877e-05,"$VNYMR,-088.226,+003.792,+001.453,+00.2433,+00.3383,+00.3877,+01.131,+00.802,-09.311,+00.018947,+00.031423,-00.326853*6B
"
1763590181.3516474,imu1_Frame,0.02491,0.012783,-0.329571,0.989,0.709,-9.744,2.306e-05,3.4830000000000004e-05,3.923e-05,"$VNYMR,-088.700,+003.818,+001.447,+00.2306,+00.3483,+00.3923,+00.989,+00.709,-09.744,+00.024910,+00.012783,-00.329571*69
"
1763590181.370959,imu1_Frame,0.017986,-0.018267,-0.326674,0.951,0.989,-9.35,2.41e-05,3.3600000000000004e-05,3.876e-05,"$VNYMR,-089.168,+003.840,+001.432,+00.2410,+00.3360,+00.3876,+00.951,+00.989,-09.350,+00.017986,-00.018267,-00.326674*63
"
1763590181.4014585,imu1_Frame,0.013016,0.020799,-0.327701,1.249,0.949,-9.729,2.3290000000000002e-05,3.398e-05,3.833e-05,"$VNYMR,-089.641,+003.875,+001.415,+00.2329,+00.3398,+00.3833,+01.249,+00.949,-09.729,+00.013016,+00.020799,-00.327701*6D
"
1763590181.4211924,imu1_Frame,0.023871,-0.004298,-0.330557,1.182,1.101,-9.645,2.364e-05,3.397e-05,3.848e-05,"$VNYMR,-090.110,+003.898,+001.400,+00.2364,+00.3397,+00.3848,+01.182,+01.101,-09.645,+00.023871,-00.004298,-00.330557*68
"
1763590181.450809,imu1_Frame,0.023995,-0.001087,-0.329139,0.991,1.119,-9.85,2.328e-05,3.314e-05,3.834e-05,"$VNYMR,-090.578,+003.915,+001.390,+00.2328,+00.3314,+00.3834,+00.991,+01.119,-09.850,+00.023995,-00.001087,-00.329139*6E
"
1763590181.4711635,imu1_Frame,0.027116,0.009205,-0.321227,1.495,1.025,-9.959,2.281e-05,3.328e-05,3.832e-05,"$VNYMR,-091.045,+003.937,+001.386,+00.2281,+00.3328,+00.3832,+01.495,+01.025,-09.959,+00.027116,+00.009205,-00.321227*63
"
1763590181.5009084,imu1_Frame,0.025528,0.000635,-0.321859,1.118,1.011,-9.765,2.282e-05,3.4000000000000007e-05,3.766e-05,"$VNYMR,-091.508,+003.946,+001.386,+00.2282,+00.3400,+00.3766,+01.118,+01.011,-09.765,+00.025528,+00.000635,-00.321859*69
"
1763590181.5212111,imu1_Frame,0.025849,0.008516,-0.320413,1.199,0.999,-9.653,2.2930000000000002e-05,3.339e-05,3.806e-05,"$VNYMR,-091.967,+003.954,+001.389,+00.2293,+00.3339,+00.3806,+01.199,+00.999,-09.653,+00.025849,+00.008516,-00.320413*62
"
1763590181.550887,imu1_Frame,0.035018,-0.04157,-0.31411,1.119,0.842,-9.906,2.2000000000000003e-05,3.378e-05,3.841e-05,"$VNYMR,-092.428,+003.953,+001.398,+00.2200,+00.3378,+00.3841,+01.119,+00.842,-09.906,+00.035018,-00.041570,-00.314110*6B
"
1763590181.570959,imu1_Frame,0.033193,-0.032198,-0.319583,1.239,0.952,-9.631,2.328e-05,3.338e-05,3.847e-05,"$VNYMR,-092.888,+003.951,+001.409,+00.2328,+00.3338,+00.3847,+01.239,+00.952,-09.631,+00.033193,-00.032198,-00.319583*62
"
1763590181.600956,imu1_Frame,0.03452,-0.00099,-0.320466,1.048,0.957,-9.588,2.2000000000000003e-05,3.378e-05,3.854000000000001e-05,"$VNYMR,-093.350,+003.948,+001.423,+00.2200,+00.3378,+00.3854,+01.048,+00.957,-09.588,+00.034520,-00.000990,-00.320466*6A
"
1763590181.6207013,imu1_Frame,0.026095,-0.014909,-0.322675,0.641,0.78,-9.67,2.282e-05,3.388e-05,3.792e-05,"$VNYMR,-093.818,+003.932,+001.433,+00.2282,+00.3388,+00.3792,+00.641,+00.780,-09.670,+00.026095,-00.014909,-00.322675*60
"
1763590181.6508536,imu1_Frame,0.015319,0.009664,-0.323071,0.49,1.011,-9.919,2.1890000000000002e-05,3.378e-05,3.828e-05,"$VNYMR,-094.286,+003.933,+001.428,+00.2189,+00.3378,+00.3828,+00.490,+01.011,-09.919,+00.015319,+00.009664,-00.323071*62
"
1763590181.6711588,imu1_Frame,0.014277,-0.022597,-0.334533,1.161,0.69,-9.176,2.258e-05,3.3639999999999996e-05,3.857e-05,"$VNYMR,-094.762,+003.930,+001.418,+00.2258,+00.3364,+00.3857,+01.161,+00.690,-09.176,+00.014277,-00.022597,-00.334533*6F
"
1763590181.7009897,imu1_Frame,0.016412,-0.045657,-0.3317,0.59,0.817,-9.013,2.212e-05,3.353e-05,3.868e-05,"$VNYMR,-095.233,+003.940,+001.402,+00.2212,+00.3353,+00.3868,+00.590,+00.817,-09.013,+00.016412,-00.045657,-00.331700*63
"
1763590181.7209604,imu1_Frame,0.021473,-0.000332,-0.331034,1.032,0.891,-9.269,2.1890000000000002e-05,3.438e-05,3.893e-05,"$VNYMR,-095.704,+003.963,+001.386,+00.2189,+00.3438,+00.3893,+01.032,+00.891,-09.269,+00.021473,-00.000332,-00.331034*6E
"
1763590181.7506738,imu1_Frame,0.018032,-0.021907,-0.330589,0.671,0.521,-9.588,2.154e-05,3.403e-05,3.878e-05,"$VNYMR,-096.179,+003.965,+001.370,+00.2154,+00.3403,+00.3878,+00.671,+00.521,-09.588,+00.018032,-00.021907,-00.330589*6B
"
1763590181.7707882,imu1_Frame,0.010761,-0.005146,-0.326065,1.01,0.782,-9.627,2.0960000000000003e-05,3.465e-05,3.875e-05,"$VNYMR,-096.653,+003.973,+001.347,+00.2096,+00.3465,+00.3875,+01.010,+00.782,-09.627,+00.010761,-00.005146,-00.326065*6A
"
1763590181.8008826,imu1_Frame,0.003625,-0.024737,-0.327714,1.134,0.802,-9.441,2.038e-05,3.418e-05,3.873e-05,"$VNYMR,-097.126,+003.973,+001.319,+00.2038,+00.3418,+00.3873,+01.134,+00.802,-09.441,+00.003625,-00.024737,-00.327714*6F
"
1763590181.8209128,imu1_Frame,-0.004784,0.005589,-0.331152,1.21,0.576,-9.718,2.0490000000000002e-05,3.418e-05,3.848e-05,"$VNYMR,-097.601,+003.966,+001.284,+00.2049,+00.3418,+00.3848,+01.210,+00.576,-09.718,-00.004784,+00.005589,-00.331152*6C
"
1763590181.851028,imu1_Frame,0.00118,0.002345,-0.323618,1.113,0.999,-9.738,1.9800000000000004e-05,3.48e-05,3.8700000000000006e-05,"$VNYMR,-098.068,+003.950,+001.249,+00.1980,+00.3480,+00.3870,+01.113,+00.999,-09.738,+00.001180,+00.002345,-00.323618*6E
"
1763590181.8706758,imu1_Frame,0.009461,-0.013635,-0.322697,0.279,1.199,-10.002,2.0260000000000003e-05,3.443e-05,3.833e-05,"$VNYMR,-098.536,+003.916,+001.225,+00.2026,+00.3443,+00.3833,+00.279,+01.199,-10.002,+00.009461,-00.013635,-00.322697*67
"
1763590181.9007096,imu1_Frame,0.02227,-0.039072,-0.325168,1.036,1.245,-9.562,1.957e-05,3.457e-05,3.883e-05,"$VNYMR,-099.008,+003.888,+001.213,+00.1957,+00.3457,+00.3883,+01.036,+01.245,-09.562,+00.022270,-00.039072,-00.325168*6C
"
1763590181.9202065,imu1_Frame,0.0273,-0.043684,-0.323489,1.111,1.3,-9.404,1.9450000000000002e-05,3.433e-05,3.83e-05,"$VNYMR,-099.475,+003.863,+001.208,+00.1945,+00.3433,+00.3830,+01.111,+01.300,-09.404,+00.027300,-00.043684,-00.323489*6C
"
1763590181.9509704,imu1_Frame,0.029552,-0.025727,-0.327894,0.817,1.344,-9.52,1.944e-05,3.373e-05,3.8310000000000004e-05,"$VNYMR,-099.943,+003.828,+001.213,+00.1944,+00.3373,+00.3831,+00.817,+01.344,-09.520,+00.029552,-00.025727,-00.327894*68
"
1763590181.9706416,imu1_Frame,0.030742,-0.003269,-0.328035,0.593,0.89,-10.347,1.898e-05,3.4699999999999996e-05,3.8010000000000004e-05,"$VNYMR,-100.414,+003.810,+001.220,+00.1898,+00.3470,+00.3801,+00.593,+00.890,-10.347,+00.030742,-00.003269,-00.328035*6B
"
1763590182.0007515,imu1_Frame,0.023042,-0.025345,-0.328216,0.648,1.002,-9.787,1.898e-05,3.398e-05,3.8150000000000006e-05,"$VNYMR,-100.885,+003.787,+001.224,+00.1898,+00.3398,+00.3815,+00.648,+01.002,-09.787,+00.023042,-00.025345,-00.328216*64
"
1763590182.0207171,imu1_Frame,0.018738,-0.008653,-0.337793,0.786,0.936,-9.382,1.851e-05,3.3520000000000004e-05,3.8140000000000004e-05,"$VNYMR,-101.360,+003.778,+001.219,+00.1851,+00.3352,+00.3814,+00.786,+00.936,-09.382,+00.018738,-00.008653,-00.337793*6D
"
1763590182.0509634,imu1_Frame,0.0112,-0.013608,-0.333529,0.711,0.555,-9.452,1.909e-05,3.3860000000000004e-05,3.7630000000000004e-05,"$VNYMR,-101.839,+003.774,+001.204,+00.1909,+00.3386,+00.3763,+00.711,+00.555,-09.452,+00.011200,-00.013608,-00.333529*69
"
1763590182.0706842,imu1_Frame,-0.000863,0.010205,-0.330346,0.712,0.979,-9.8,1.91e-05,3.398e-05,3.776e-05,"$VNYMR,-102.317,+003.788,+001.177,+00.1910,+00.3398,+00.3776,+00.712,+00.979,-09.800,-00.000863,+00.010205,-00.330346*69
"
1763590182.1007895,imu1_Frame,0.007936,-0.003031,-0.335561,0.726,0.748,-10.001,1.828e-05,3.376e-05,3.8390000000000003e-05,"$VNYMR,-102.798,+003.792,+001.154,+00.1828,+00.3376,+00.3839,+00.726,+00.748,-10.001,+00.007936,-00.003031,-00.335561*63
"
1763590182.1209507,imu1_Frame,0.00652,-0.003822,-0.336815,0.563,0.49,-9.553,1.863e-05,3.399e-05,3.8010000000000004e-05,"$VNYMR,-103.282,+003.804,+001.137,+00.1863,+00.3399,+00.3801,+00.563,+00.490,-09.553,+00.006520,-00.003822,-00.336815*6E
"
1763590182.1509006,imu1_Frame,0.012196,0.035755,-0.338946,1.027,1.01,-9.802,1.909e-05,3.362e-05,3.829e-05,"$VNYMR,-103.760,+003.840,+001.118,+00.1909,+00.3362,+00.3829,+01.027,+01.010,-09.802,+00.012196,+00.035755,-00.338946*60
"
1763590182.1709027,imu1_Frame,0.01383,0.014435,-0.332954,0.832,0.791,-9.983,1.828e-05,3.3639999999999996e-05,3.799e-05,"$VNYMR,-104.238,+003.850,+001.106,+00.1828,+00.3364,+00.3799,+00.832,+00.791,-09.983,+00.013830,+00.014435,-00.332954*60
"
1763590182.2006853,imu1_Frame,0.016864,0.0124,-0.326091,0.942,0.993,-10.215,1.828e-05,3.3520000000000004e-05,3.878e-05,"$VNYMR,-104.712,+003.866,+001.098,+00.1828,+00.3352,+00.3878,+00.942,+00.993,-10.215,+00.016864,+00.012400,-00.326091*6C
"
1763590182.221001,imu1_Frame,0.031881,0.003631,-0.323925,1.165,1.278,-10.228,1.758e-05,3.354e-05,3.889e-05,"$VNYMR,-105.176,+003.887,+001.101,+00.1758,+00.3354,+00.3889,+01.165,+01.278,-10.228,+00.031881,+00.003631,-00.323925*67
"
1763590182.2507288,imu1_Frame,0.040741,-0.014392,-0.330032,1.104,0.999,-9.768,1.8160000000000002e-05,3.4000000000000007e-05,3.864e-05,"$VNYMR,-105.641,+003.891,+001.117,+00.1816,+00.3400,+00.3864,+01.104,+00.999,-09.768,+00.040741,-00.014392,-00.330032*6B
"
1763590182.2704742,imu1_Frame,0.036252,0.022792,-0.312319,1.129,1.146,-9.578,1.712e-05,3.403e-05,3.8990000000000004e-05,"$VNYMR,-106.096,+003.898,+001.134,+00.1712,+00.3403,+00.3899,+01.129,+01.146,-09.578,+00.036252,+00.022792,-00.312319*6A
"
1763590182.3013146,imu1_Frame,0.035248,-0.01842,-0.314896,0.722,1.059,-9.483,1.689e-05,3.4280000000000004e-05,3.859e-05,"$VNYMR,-106.552,+003.888,+001.149,+00.1689,+00.3428,+00.3859,+00.722,+01.059,-09.483,+00.035248,-00.018420,-00.314896*6B
"
1763590182.3208182,imu1_Frame,0.015958,-0.011872,-0.319852,1.077,0.695,-9.54,1.701e-05,3.464e-05,3.7800000000000004e-05,"$VNYMR,-107.015,+003.881,+001.146,+00.1701,+00.3464,+00.3780,+01.077,+00.695,-09.540,+00.015958,-00.011872,-00.319852*68
"
1763590182.3507993,imu1_Frame,0.006999,-0.017223,-0.323465,1.143,1.031,-9.451,1.654e-05,3.525e-05,3.922e-05,"$VNYMR,-107.478,+003.869,+001.122,+00.1654,+00.3525,+00.3922,+01.143,+01.031,-09.451,+00.006999,-00.017223,-00.323465*68
"
1763590182.3708088,imu1_Frame,-0.001573,-0.024585,-0.324131,0.585,1.145,-9.256,1.63e-05,3.394e-05,3.817e-05,"$VNYMR,-107.948,+003.839,+001.091,+00.1630,+00.3394,+00.3817,+00.585,+01.145,-09.256,-00.001573,-00.024585,-00.324131*6E
"
1763590182.401157,imu1_Frame,0.006488,-0.018248,-0.328184,0.953,1.095,-9.887,1.595e-05,3.4070000000000004e-05,3.829e-05,"$VNYMR,-108.424,+003.828,+001.063,+00.1595,+00.3407,+00.3829,+00.953,+01.095,-09.887,+00.006488,-00.018248,-00.328184*65
"
1763590182.4206116,imu1_Frame,0.012844,-0.025705,-0.335431,0.729,1.18,-9.471,1.607e-05,3.4660000000000004e-05,3.842e-05,"$VNYMR,-108.905,+003.828,+001.044,+00.1607,+00.3466,+00.3842,+00.729,+01.180,-09.471,+00.012844,-00.025705,-00.335431*63
"
1763590182.4505703,imu1_Frame,0.018286,0.001742,-0.335679,0.927,1.296,-9.285,1.5260000000000003e-05,3.493e-05,3.838e-05,"$VNYMR,-109.388,+003.817,+001.037,+00.1526,+00.3493,+00.3838,+00.927,+01.296,-09.285,+00.018286,+00.001742,-00.335679*68
"
1763590182.4707038,imu1_Frame,0.024327,-0.013538,-0.335629,0.684,0.816,-9.769,1.537e-05,3.433e-05,3.721e-05,"$VNYMR,-109.874,+003.813,+001.038,+00.1537,+00.3433,+00.3721,+00.684,+00.816,-09.769,+00.024327,-00.013538,-00.335629*6E
"
1763590182.5007393,imu1_Frame,0.017282,-0.003383,-0.331602,0.798,1.036,-10.047,1.5260000000000003e-05,3.5170000000000004e-05,3.7850000000000005e-05,"$VNYMR,-110.354,+003.816,+001.033,+00.1526,+00.3517,+00.3785,+00.798,+01.036,-10.047,+00.017282,-00.003383,-00.331602*68
"
1763590182.5207427,imu1_Frame,0.018744,-0.011677,-0.333041,0.953,0.831,-9.95,1.561e-05,3.48e-05,3.761e-05,"$VNYMR,-110.834,+003.816,+001.024,+00.1561,+00.3480,+00.3761,+00.953,+00.831,-09.950,+00.018744,-00.011677,-00.333041*6B
"
1763590182.5505633,imu1_Frame,0.016035,-0.034401,-0.324953,0.566,0.758,-9.858,1.584e-05,3.419e-05,3.762e-05,"$VNYMR,-111.307,+003.810,+001.012,+00.1584,+00.3419,+00.3762,+00.566,+00.758,-09.858,+00.016035,-00.034401,-00.324953*6E
"
1763590182.5709314,imu1_Frame,0.015394,0.027418,-0.318954,1.172,1.46,-10.317,1.502e-05,3.398e-05,3.72e-05,"$VNYMR,-111.771,+003.832,+000.997,+00.1502,+00.3398,+00.3720,+01.172,+01.460,-10.317,+00.015394,+00.027418,-00.318954*66
"
1763590182.600727,imu1_Frame,0.029394,-0.013386,-0.328877,0.799,0.896,-9.974,1.502e-05,3.445e-05,3.7590000000000004e-05,"$VNYMR,-112.234,+003.828,+000.998,+00.1502,+00.3445,+00.3759,+00.799,+00.896,-09.974,+00.029394,-00.013386,-00.328877*60
"
1763590182.6209204,imu1_Frame,0.028165,-0.009668,-0.319643,1.136,0.995,-9.484,1.525e-05,3.325e-05,3.7080000000000004e-05,"$VNYMR,-112.694,+003.820,+001.005,+00.1525,+00.3325,+00.3708,+01.136,+00.995,-09.484,+00.028165,-00.009668,-00.319643*60
"
1763590182.6508453,imu1_Frame,0.040829,-0.002779,-0.315309,0.926,1.095,-9.674,1.5129999999999999e-05,3.349e-05,3.721e-05,"$VNYMR,-113.144,+003.816,+001.022,+00.1513,+00.3349,+00.3721,+00.926,+01.095,-09.674,+00.040829,-00.002779,-00.315309*60
"
1763590182.670824,imu1_Frame,0.041295,-0.018973,-0.322763,0.975,0.736,-9.39,1.479e-05,3.3860000000000004e-05,3.68e-05,"$VNYMR,-113.605,+003.791,+001.048,+00.1479,+00.3386,+00.3680,+00.975,+00.736,-09.390,+00.041295,-00.018973,-00.322763*63
"
1763590182.7007568,imu1_Frame,0.047066,-0.005151,-0.318882,1.224,0.901,-9.776,1.4430000000000002e-05,3.339e-05,3.77e-05,"$VNYMR,-114.063,+003.773,+001.075,+00.1443,+00.3339,+00.3770,+01.224,+00.901,-09.776,+00.047066,-00.005151,-00.318882*6E
"
1763590182.7207067,imu1_Frame,0.047111,-0.050177,-0.324644,1.005,1.028,-9.387,1.4660000000000002e-05,3.3260000000000003e-05,3.7850000000000005e-05,"$VNYMR,-114.523,+003.728,+001.106,+00.1466,+00.3326,+00.3785,+01.005,+01.028,-09.387,+00.047111,-00.050177,-00.324644*61
"
1763590182.750607,imu1_Frame,0.033923,-0.018647,-0.321011,0.964,0.952,-9.781,1.3850000000000001e-05,3.317e-05,3.703e-05,"$VNYMR,-114.988,+003.692,+001.129,+00.1385,+00.3317,+00.3703,+00.964,+00.952,-09.781,+00.033923,-00.018647,-00.321011*6E
"
1763590182.7703326,imu1_Frame,0.028436,-0.05221,-0.334522,0.777,0.476,-9.041,1.3860000000000001e-05,3.473e-05,3.7930000000000004e-05,"$VNYMR,-115.461,+003.642,+001.141,+00.1386,+00.3473,+00.3793,+00.777,+00.476,-09.041,+00.028436,-00.052210,-00.334522*6F
"
1763590182.8009224,imu1_Frame,-0.005414,-0.03446,-0.333392,0.526,0.647,-8.538,1.432e-05,3.363e-05,3.8350000000000004e-05,"$VNYMR,-115.936,+003.594,+001.120,+00.1432,+00.3363,+00.3835,+00.526,+00.647,-08.538,-00.005414,-00.034460,-00.333392*6C
"
1763590182.8206859,imu1_Frame,-0.029592,-0.016995,-0.339757,0.565,0.109,-8.726,1.2570000000000002e-05,3.368e-05,3.867e-05,"$VNYMR,-116.424,+003.568,+001.065,+00.1257,+00.3368,+00.3867,+00.565,+00.109,-08.726,-00.029592,-00.016995,-00.339757*6D
"
1763590182.850776,imu1_Frame,-0.06905,-0.001962,-0.343643,0.318,0.31,-8.35,1.362e-05,3.389e-05,3.7800000000000004e-05,"$VNYMR,-116.916,+003.581,+000.955,+00.1362,+00.3389,+00.3780,+00.318,+00.310,-08.350,-00.069050,-00.001962,-00.343643*68
"
1763590182.8711326,imu1_Frame,-0.090467,0.072084,-0.349322,0.655,0.805,-8.522,1.2e-05,3.442e-05,3.825e-05,"$VNYMR,-117.412,+003.653,+000.804,+00.1200,+00.3442,+00.3825,+00.655,+00.805,-08.522,-00.090467,+00.072084,-00.349322*61
"
1763590182.900755,imu1_Frame,-0.059802,0.046996,-0.349852,0.965,1.023,-9.267,1.233e-05,3.297e-05,3.828e-05,"$VNYMR,-117.910,+003.764,+000.661,+00.1233,+00.3297,+00.3828,+00.965,+01.023,-09.267,-00.059802,+00.046996,-00.349852*68
"
1763590182.9206376,imu1_Frame,-0.025526,0.042493,-0.337848,1.376,1.789,-10.202,1.141e-05,3.359e-05,3.731e-05,"$VNYMR,-118.399,+003.841,+000.565,+00.1141,+00.3359,+00.3731,+01.376,+01.789,-10.202,-00.025526,+00.042493,-00.337848*6A
"
1763590182.951514,imu1_Frame,0.019372,0.046061,-0.334542,1.767,1.547,-10.055,1.129e-05,3.324e-05,3.7840000000000004e-05,"$VNYMR,-118.875,+003.916,+000.532,+00.1129,+00.3324,+00.3784,+01.767,+01.547,-10.055,+00.019372,+00.046061,-00.334542*6B
"
1763590182.9707468,imu1_Frame,0.037524,0.035947,-0.320702,1.219,1.212,-10.133,1.2220000000000002e-05,3.297e-05,3.775e-05,"$VNYMR,-119.342,+003.962,+000.547,+00.1222,+00.3297,+00.3775,+01.219,+01.212,-10.133,+00.037524,+00.035947,-00.320702*62
"
1763590183.0007622,imu1_Frame,0.04321,0.04771,-0.306804,1.352,1.572,-10.475,1.1050000000000001e-05,3.312e-05,3.757e-05,"$VNYMR,-119.791,+004.011,+000.579,+00.1105,+00.3312,+00.3757,+01.352,+01.572,-10.475,+00.043210,+00.047710,-00.306804*6A
"
1763590183.0204062,imu1_Frame,0.049928,-0.017733,-0.306664,1.167,1.236,-10.207,1.164e-05,3.323e-05,3.706e-05,"$VNYMR,-120.236,+004.028,+000.617,+00.1164,+00.3323,+00.3706,+01.167,+01.236,-10.207,+00.049928,-00.017733,-00.306664*68
"
1763590183.0509279,imu1_Frame,0.044877,0.001254,-0.304291,1.641,1.464,-10.414,1.117e-05,3.312e-05,3.744e-05,"$VNYMR,-120.674,+004.040,+000.649,+00.1117,+00.3312,+00.3744,+01.641,+01.464,-10.414,+00.044877,+00.001254,-00.304291*66
"
1763590183.070499,imu1_Frame,0.047647,-0.043713,-0.299507,1.446,1.73,-10.746,1.175e-05,3.251e-05,3.629e-05,"$VNYMR,-121.105,+004.023,+000.673,+00.1175,+00.3251,+00.3629,+01.446,+01.730,-10.746,+00.047647,-00.043713,-00.299507*64
"
1763590183.1010168,imu1_Frame,0.041997,-0.028058,-0.304897,1.262,1.555,-10.572,1.1400000000000001e-05,3.288e-05,3.68e-05,"$VNYMR,-121.541,+003.988,+000.698,+00.1140,+00.3288,+00.3680,+01.262,+01.555,-10.572,+00.041997,-00.028058,-00.304897*6F
"
1763590183.120697,imu1_Frame,0.058566,-0.030869,-0.299637,1.395,1.582,-10.151,1.023e-05,3.243e-05,3.6880000000000006e-05,"$VNYMR,-121.974,+003.936,+000.740,+00.1023,+00.3243,+00.3688,+01.395,+01.582,-10.151,+00.058566,-00.030869,-00.299637*61
"
1763590183.1511602,imu1_Frame,0.071875,-0.046036,-0.312587,0.811,1.356,-9.707,1.1400000000000001e-05,3.251e-05,3.732e-05,"$VNYMR,-122.420,+003.859,+000.802,+00.1140,+00.3251,+00.3732,+00.811,+01.356,-09.707,+00.071875,-00.046036,-00.312587*61
"
1763590183.1709406,imu1_Frame,0.084817,-0.062986,-0.317487,1.104,1.17,-9.59,1.058e-05,3.218e-05,3.7290000000000004e-05,"$VNYMR,-122.876,+003.787,+000.880,+00.1058,+00.3218,+00.3729,+01.104,+01.170,-09.590,+00.084817,-00.062986,-00.317487*6F
"
1763590183.2011695,imu1_Frame,0.101492,-0.093452,-0.326161,0.681,0.972,-8.979,1.1040000000000001e-05,3.18e-05,3.6790000000000005e-05,"$VNYMR,-123.337,+003.708,+000.974,+00.1104,+00.3180,+00.3679,+00.681,+00.972,-08.979,+00.101492,-00.093452,-00.326161*61
"
1763590183.2210503,imu1_Frame,0.093145,-0.050349,-0.327106,1.445,0.741,-8.716,9.65e-06,3.196e-05,3.686e-05,"$VNYMR,-123.804,+003.648,+001.077,+00.0965,+00.3196,+00.3686,+01.445,+00.741,-08.716,+00.093145,-00.050349,-00.327106*68
"
1763590183.25082,imu1_Frame,0.071878,-0.03016,-0.323748,1.101,0.451,-9.722,1.035e-05,3.218e-05,3.7550000000000005e-05,"$VNYMR,-124.275,+003.619,+001.159,+00.1035,+00.3218,+00.3755,+01.101,+00.451,-09.722,+00.071878,-00.030160,-00.323748*60
"
1763590183.2711098,imu1_Frame,0.040911,-0.006369,-0.315401,1.046,0.485,-9.941,1.023e-05,3.1580000000000006e-05,3.7290000000000004e-05,"$VNYMR,-124.751,+003.572,+001.212,+00.1023,+00.3158,+00.3729,+01.046,+00.485,-09.941,+00.040911,-00.006369,-00.315401*63
"
1763590183.3004127,imu1_Frame,0.03298,-0.02683,-0.332674,0.909,0.339,-9.718,1.012e-05,3.291e-05,3.8190000000000005e-05,"$VNYMR,-125.225,+003.536,+001.240,+00.1012,+00.3291,+00.3819,+00.909,+00.339,-09.718,+00.032980,-00.026830,-00.332674*67
"
1763590183.3204553,imu1_Frame,0.027785,-0.023306,-0.329537,0.655,0.487,-9.83,1.023e-05,3.206e-05,3.781e-05,"$VNYMR,-125.693,+003.533,+001.248,+00.1023,+00.3206,+00.3781,+00.655,+00.487,-09.830,+00.027785,-00.023306,-00.329537*6A
"
1763590183.3507853,imu1_Frame,0.017474,-0.00611,-0.324854,1.057,0.788,-9.929,9.89e-06,3.3400000000000005e-05,3.712e-05,"$VNYMR,-126.162,+003.516,+001.246,+00.0989,+00.3340,+00.3712,+01.057,+00.788,-09.929,+00.017474,-00.006110,-00.324854*61
"
1763590183.3711433,imu1_Frame,0.033197,-0.031087,-0.31763,1.164,0.924,-9.696,9.3e-06,3.221e-05,3.7500000000000003e-05,"$VNYMR,-126.623,+003.501,+001.256,+00.0930,+00.3221,+00.3750,+01.164,+00.924,-09.696,+00.033197,-00.031087,-00.317630*6D
"
1763590183.400576,imu1_Frame,0.046672,-0.046068,-0.32006,1.078,1.024,-9.165,8.95e-06,3.2579999999999996e-05,3.7090000000000006e-05,"$VNYMR,-127.082,+003.479,+001.286,+00.0895,+00.3258,+00.3709,+01.078,+01.024,-09.165,+00.046672,-00.046068,-00.320060*69
"
1763590183.4211159,imu1_Frame,0.064226,-0.006852,-0.317588,1.151,1.158,-9.636,8.14e-06,3.248e-05,3.745e-05,"$VNYMR,-127.531,+003.481,+001.334,+00.0814,+00.3248,+00.3745,+01.151,+01.158,-09.636,+00.064226,-00.006852,-00.317588*6D
"
1763590183.4508479,imu1_Frame,0.065867,-0.021001,-0.312165,0.919,0.602,-9.433,8.840000000000002e-06,3.27e-05,3.721e-05,"$VNYMR,-127.982,+003.454,+001.398,+00.0884,+00.3270,+00.3721,+00.919,+00.602,-09.433,+00.065867,-00.021001,-00.312165*6B
"
1763590183.4707806,imu1_Frame,0.046442,0.010185,-0.314257,1.151,0.576,-9.622,8.61e-06,3.2590000000000005e-05,3.694e-05,"$VNYMR,-128.430,+003.446,+001.446,+00.0861,+00.3259,+00.3694,+01.151,+00.576,-09.622,+00.046442,+00.010185,-00.314257*68
"
1763590183.5007386,imu1_Frame,0.032237,-0.062242,-0.318339,1.17,0.375,-9.447,8.49e-06,3.235e-05,3.694e-05,"$VNYMR,-128.882,+003.414,+001.468,+00.0849,+00.3235,+00.3694,+01.170,+00.375,-09.447,+00.032237,-00.062242,-00.318339*68
"
1763590183.520999,imu1_Frame,-0.009875,-0.033851,-0.324868,1.189,-0.049,-9.361,8.599999999999999e-06,3.235e-05,3.668e-05,"$VNYMR,-129.344,+003.377,+001.447,+00.0860,+00.3235,+00.3668,+01.189,-00.049,-09.361,-00.009875,-00.033851,-00.324868*6E
"
1763590183.550867,imu1_Frame,-0.024306,-0.043879,-0.331715,1.292,0.104,-9.867,8.37e-06,3.212e-05,3.694e-05,"$VNYMR,-129.814,+003.319,+001.390,+00.0837,+00.3212,+00.3694,+01.292,+00.104,-09.867,-00.024306,-00.043879,-00.331715*67
"
1763590183.5706434,imu1_Frame,-0.032679,-0.068149,-0.331586,0.73,0.647,-9.817,8.13e-06,3.176e-05,3.6670000000000006e-05,"$VNYMR,-130.286,+003.230,+001.315,+00.0813,+00.3176,+00.3667,+00.730,+00.647,-09.817,-00.032679,-00.068149,-00.331586*68
"
1763590183.6010695,imu1_Frame,-0.020393,-0.051359,-0.325856,0.956,1.004,-9.982,8.12e-06,3.0680000000000004e-05,3.681e-05,"$VNYMR,-130.766,+003.143,+001.253,+00.0812,+00.3068,+00.3681,+00.956,+01.004,-09.982,-00.020393,-00.051359,-00.325856*6D
"
1763590183.6207075,imu1_Frame,0.007737,-0.090255,-0.332979,1.08,1.016,-9.152,8.010000000000001e-06,3.1530000000000005e-05,3.654e-05,"$VNYMR,-131.244,+003.046,+001.223,+00.0801,+00.3153,+00.3654,+01.080,+01.016,-09.152,+00.007737,-00.090255,-00.332979*6F
"
1763590183.6505914,imu1_Frame,0.012676,-0.053863,-0.333825,1.016,0.984,-8.986,8.350000000000001e-06,3.0440000000000003e-05,3.617e-05,"$VNYMR,-131.717,+002.966,+001.210,+00.0835,+00.3044,+00.3617,+01.016,+00.984,-08.986,+00.012676,-00.053863,-00.333825*64
"
1763590183.670813,imu1_Frame,0.020169,-0.034698,-0.327262,0.784,0.936,-9.908,6.4900000000000005e-06,3.0730000000000006e-05,3.714e-05,"$VNYMR,-132.185,+002.906,+001.204,+00.0649,+00.3073,+00.3714,+00.784,+00.936,-09.908,+00.020169,-00.034698,-00.327262*66
"
1763590183.7009416,imu1_Frame,0.014477,-0.035301,-0.318159,0.652,1.176,-9.808,8.24e-06,3.116e-05,3.694e-05,"$VNYMR,-132.647,+002.857,+001.199,+00.0824,+00.3116,+00.3694,+00.652,+01.176,-09.808,+00.014477,-00.035301,-00.318159*6B
"
1763590183.720951,imu1_Frame,0.018344,-0.017018,-0.31796,0.888,1.415,-9.693,6.610000000000001e-06,3.06e-05,3.728e-05,"$VNYMR,-133.104,+002.838,+001.200,+00.0661,+00.3060,+00.3728,+00.888,+01.415,-09.693,+00.018344,-00.017018,-00.317960*61
"
1763590183.750921,imu1_Frame,0.022165,-0.004559,-0.321612,0.668,1.109,-9.675,7.76e-06,2.961e-05,3.7330000000000003e-05,"$VNYMR,-133.558,+002.837,+001.207,+00.0776,+00.2961,+00.3733,+00.668,+01.109,-09.675,+00.022165,-00.004559,-00.321612*65
"
1763590183.7717519,imu1_Frame,0.018712,0.03029,-0.315778,0.77,1.334,-9.641,6.830000000000001e-06,2.964e-05,3.7430000000000006e-05,"$VNYMR,-134.008,+002.866,+001.214,+00.0683,+00.2964,+00.3743,+00.770,+01.334,-09.641,+00.018712,+00.030290,-00.315778*68
"
1763590183.8012724,imu1_Frame,0.024478,0.017337,-0.313435,0.59,1.245,-9.476,6.950000000000001e-06,2.975e-05,3.756e-05,"$VNYMR,-134.458,+002.904,+001.228,+00.0695,+00.2975,+00.3756,+00.590,+01.245,-09.476,+00.024478,+00.017337,-00.313435*68
"
1763590183.821151,imu1_Frame,0.037981,0.020978,-0.317575,0.666,1.281,-9.082,6.72e-06,2.9520000000000002e-05,3.782e-05,"$VNYMR,-134.907,+002.969,+001.253,+00.0672,+00.2952,+00.3782,+00.666,+01.281,-09.082,+00.037981,+00.020978,-00.317575*6D
"
1763590183.8632667,imu1_Frame,0.061601,0.049068,-0.318011,0.926,1.401,-9.782,5.9e-06,2.9900000000000002e-05,3.778000000000001e-05,"$VNYMR,-135.356,+003.046,+001.296,+00.0590,+00.2990,+00.3778,+00.926,+01.401,-09.782,+00.061601,+00.049068,-00.318011*63
"
1763590183.8708029,imu1_Frame,0.072854,0.035727,-0.315213,0.576,1.107,-9.983,5.56e-06,3.0270000000000003e-05,3.7630000000000004e-05,"$VNYMR,-135.803,+003.106,+001.358,+00.0556,+00.3027,+00.3763,+00.576,+01.107,-09.983,+00.072854,+00.035727,-00.315213*69
"
1763590183.9097872,imu1_Frame,0.069783,0.03164,-0.308043,0.91,1.336,-9.743,5.680000000000001e-06,3.147e-05,3.762e-05,"$VNYMR,-136.253,+003.160,+001.429,+00.0568,+00.3147,+00.3762,+00.910,+01.336,-09.743,+00.069783,+00.031640,-00.308043*61
"
1763590183.9327874,imu1_Frame,0.070276,0.006877,-0.306279,1.818,1.421,-9.598,4.52e-06,3.138e-05,3.757e-05,"$VNYMR,-136.699,+003.204,+001.507,+00.0452,+00.3138,+00.3757,+01.818,+01.421,-09.598,+00.070276,+00.006877,-00.306279*68
"
1763590183.9530103,imu1_Frame,0.059704,0.017415,-0.306182,0.736,0.224,-9.464,5.44e-06,3.0520000000000006e-05,3.71e-05,"$VNYMR,-137.152,+003.228,+001.581,+00.0544,+00.3052,+00.3710,+00.736,+00.224,-09.464,+00.059704,+00.017415,-00.306182*67
"
1763590183.9807427,imu1_Frame,0.052873,0.008721,-0.322805,0.596,0.416,-10.256,5.220000000000001e-06,3.112e-05,3.774e-05,"$VNYMR,-137.599,+003.254,+001.636,+00.0522,+00.3112,+00.3774,+00.596,+00.416,-10.256,+00.052873,+00.008721,-00.322805*69
"
1763590184.0012262,imu1_Frame,0.031513,-0.036112,-0.314491,0.971,0.128,-9.493,5.44e-06,3.028e-05,3.723e-05,"$VNYMR,-138.054,+003.266,+001.669,+00.0544,+00.3028,+00.3723,+00.971,+00.128,-09.493,+00.031513,-00.036112,-00.314491*6E
"
1763590184.0209827,imu1_Frame,0.010148,-0.015296,-0.318644,1.622,0.423,-9.108,4.970000000000001e-06,2.9809999999999997e-05,3.774e-05,"$VNYMR,-138.517,+003.278,+001.673,+00.0497,+00.2981,+00.3774,+01.622,+00.423,-09.108,+00.010148,-00.015296,-00.318644*6E
"
1763590184.0503674,imu1_Frame,0.00659,0.021937,-0.314335,0.972,0.405,-9.837,4.86e-06,2.9930000000000003e-05,3.747e-05,"$VNYMR,-138.980,+003.284,+001.658,+00.0486,+00.2993,+00.3747,+00.972,+00.405,-09.837,+00.006590,+00.021937,-00.314335*67
"
1763590184.070771,imu1_Frame,0.011411,-0.021637,-0.32208,0.807,0.704,-9.78,4.62e-06,2.898e-05,3.7340000000000005e-05,"$VNYMR,-139.442,+003.273,+001.644,+00.0462,+00.2898,+00.3734,+00.807,+00.704,-09.780,+00.011411,-00.021637,-00.322080*69
"
1763590184.1010857,imu1_Frame,0.010297,0.007805,-0.316859,0.765,0.349,-9.682,4.7300000000000005e-06,2.885e-05,3.735e-05,"$VNYMR,-139.902,+003.276,+001.632,+00.0473,+00.2885,+00.3735,+00.765,+00.349,-09.682,+00.010297,+00.007805,-00.316859*63
"
1763590184.1205313,imu1_Frame,0.032134,-0.038015,-0.324469,0.827,0.323,-9.718,3.910000000000001e-06,2.8760000000000002e-05,3.692e-05,"$VNYMR,-140.358,+003.263,+001.631,+00.0391,+00.2876,+00.3692,+00.827,+00.323,-09.718,+00.032134,-00.038015,-00.324469*64
"
1763590184.1508815,imu1_Frame,0.02942,-0.046941,-0.313721,1.306,0.416,-9.474,4.610000000000001e-06,2.8620000000000004e-05,3.7080000000000004e-05,"$VNYMR,-140.809,+003.256,+001.629,+00.0461,+00.2862,+00.3708,+01.306,+00.416,-09.474,+00.029420,-00.046941,-00.313721*6A
"
1763590184.171165,imu1_Frame,0.020643,-0.049486,-0.310505,1.63,0.691,-9.341,3.910000000000001e-06,2.84e-05,3.692e-05,"$VNYMR,-141.255,+003.252,+001.620,+00.0391,+00.2840,+00.3692,+01.630,+00.691,-09.341,+00.020643,-00.049486,-00.310505*63
"
1763590184.2010453,imu1_Frame,0.006416,-0.00489,-0.311552,1.304,0.388,-9.456,3.7900000000000006e-06,2.804e-05,3.771e-05,"$VNYMR,-141.701,+003.246,+001.603,+00.0379,+00.2804,+00.3771,+01.304,+00.388,-09.456,+00.006416,-00.004890,-00.311552*60
"
1763590184.2206736,imu1_Frame,-0.004043,-0.001156,-0.316233,0.622,0.414,-9.842,4.0200000000000005e-06,2.7550000000000002e-05,3.6670000000000006e-05,"$VNYMR,-142.143,+003.243,+001.570,+00.0402,+00.2755,+00.3667,+00.622,+00.414,-09.842,-00.004043,-00.001156,-00.316233*6D
"
1763590184.25044,imu1_Frame,-0.01137,0.003572,-0.308608,1.241,0.715,-9.646,3.55e-06,2.7200000000000004e-05,3.745e-05,"$VNYMR,-142.588,+003.258,+001.525,+00.0355,+00.2720,+00.3745,+01.241,+00.715,-09.646,-00.011370,+00.003572,-00.308608*68
"
1763590184.2704568,imu1_Frame,0.000988,-0.01303,-0.308383,1.124,1.136,-9.724,3.4299999999999998e-06,2.709e-05,3.757e-05,"$VNYMR,-143.034,+003.268,+001.487,+00.0343,+00.2709,+00.3757,+01.124,+01.136,-09.724,+00.000988,-00.013030,-00.308383*64
"
1763590184.3007345,imu1_Frame,0.01289,0.010802,-0.31351,0.976,1.337,-9.886,2.9700000000000004e-06,2.722e-05,3.7680000000000005e-05,"$VNYMR,-143.481,+003.277,+001.468,+00.0297,+00.2722,+00.3768,+00.976,+01.337,-09.886,+00.012890,+00.010802,-00.313510*67
"
1763590184.3202548,imu1_Frame,0.030085,0.00339,-0.316281,0.817,0.941,-10.142,3.2000000000000003e-06,2.673e-05,3.757e-05,"$VNYMR,-143.934,+003.280,+001.474,+00.0320,+00.2673,+00.3757,+00.817,+00.941,-10.142,+00.030085,+00.003390,-00.316281*64
"
1763590184.350606,imu1_Frame,0.043301,-0.017124,-0.316805,1.316,1.209,-9.427,3.08e-06,2.6379999999999998e-05,3.7430000000000006e-05,"$VNYMR,-144.386,+003.267,+001.501,+00.0308,+00.2638,+00.3743,+01.316,+01.209,-09.427,+00.043301,-00.017124,-00.316805*6A
"
1763590184.3709636,imu1_Frame,0.052632,0.007135,-0.316539,0.258,1.149,-9.575,2.6200000000000003e-06,2.6750000000000003e-05,3.754e-05,"$VNYMR,-144.838,+003.254,+001.542,+00.0262,+00.2675,+00.3754,+00.258,+01.149,-09.575,+00.052632,+00.007135,-00.316539*6A
"
1763590184.4011757,imu1_Frame,0.060003,-0.044241,-0.313746,0.759,0.994,-9.19,4.01e-06,2.647e-05,3.682e-05,"$VNYMR,-145.291,+003.235,+001.591,+00.0401,+00.2647,+00.3682,+00.759,+00.994,-09.190,+00.060003,-00.044241,-00.313746*6A
"
1763590184.4206076,imu1_Frame,0.039418,-0.003446,-0.311202,0.876,0.903,-9.303,3.7800000000000002e-06,2.6960000000000003e-05,3.68e-05,"$VNYMR,-145.740,+003.253,+001.625,+00.0378,+00.2696,+00.3680,+00.876,+00.903,-09.303,+00.039418,-00.003446,-00.311202*6B
"
1763590184.4503212,imu1_Frame,0.035629,0.006497,-0.310584,0.866,0.685,-9.407,2.6200000000000003e-06,2.7470000000000003e-05,3.675e-05,"$VNYMR,-146.192,+003.254,+001.652,+00.0262,+00.2747,+00.3675,+00.866,+00.685,-09.407,+00.035629,+00.006497,-00.310584*63
"
1763590184.4706366,imu1_Frame,0.02907,-0.010179,-0.31546,1.036,0.89,-8.817,3.08e-06,2.6500000000000004e-05,3.717e-05,"$VNYMR,-146.644,+003.262,+001.669,+00.0308,+00.2650,+00.3717,+01.036,+00.890,-08.817,+00.029070,-00.010179,-00.315460*6A
"
1763590184.500845,imu1_Frame,0.029155,0.023364,-0.310843,1.235,1.309,-9.627,2.9700000000000004e-06,2.7700000000000002e-05,3.6370000000000006e-05,"$VNYMR,-147.092,+003.291,+001.680,+00.0297,+00.2770,+00.3637,+01.235,+01.309,-09.627,+00.029155,+00.023364,-00.310843*6B
"
1763590184.5207171,imu1_Frame,0.031213,0.025222,-0.310664,0.241,0.663,-10.375,2.2700000000000003e-06,2.712e-05,3.766e-05,"$VNYMR,-147.543,+003.284,+001.700,+00.0227,+00.2712,+00.3766,+00.241,+00.663,-10.375,+00.031213,+00.025222,-00.310664*63
"
1763590184.550373,imu1_Frame,0.030628,0.004062,-0.305219,0.428,1.04,-9.811,2.38e-06,2.6040000000000005e-05,3.636e-05,"$VNYMR,-147.995,+003.273,+001.721,+00.0238,+00.2604,+00.3636,+00.428,+01.040,-09.811,+00.030628,+00.004062,-00.305219*6F
"
1763590184.570328,imu1_Frame,0.037386,-0.006102,-0.313266,0.662,0.811,-9.877,2.26e-06,2.5679999999999998e-05,3.6880000000000006e-05,"$VNYMR,-148.445,+003.272,+001.747,+00.0226,+00.2568,+00.3688,+00.662,+00.811,-09.877,+00.037386,-00.006102,-00.313266*69
"
1763590184.6005847,imu1_Frame,0.029911,-0.023301,-0.313699,0.92,0.484,-9.267,2.26e-06,2.58e-05,3.6230000000000004e-05,"$VNYMR,-148.898,+003.251,+001.767,+00.0226,+00.2580,+00.3623,+00.920,+00.484,-09.267,+00.029911,-00.023301,-00.313699*6A
"
1763590184.6210442,imu1_Frame,0.0227,-0.049649,-0.307036,0.826,0.627,-9.192,2.37e-06,2.5319999999999998e-05,3.702e-05,"$VNYMR,-149.347,+003.229,+001.776,+00.0237,+00.2532,+00.3702,+00.826,+00.627,-09.192,+00.022700,-00.049649,-00.307036*65
"
1763590184.6503115,imu1_Frame,0.031541,-0.044958,-0.312975,1.227,0.917,-9.193,1.9e-06,2.5090000000000002e-05,3.714e-05,"$VNYMR,-149.796,+003.211,+001.778,+00.0190,+00.2509,+00.3714,+01.227,+00.917,-09.193,+00.031541,-00.044958,-00.312975*63
"
1763590184.6702495,imu1_Frame,0.033524,-0.026581,-0.31551,1.212,0.982,-9.156,2.02e-06,2.521e-05,3.609e-05,"$VNYMR,-150.245,+003.182,+001.785,+00.0202,+00.2521,+00.3609,+01.212,+00.982,-09.156,+00.033524,-00.026581,-00.315510*62
"
1763590184.7004006,imu1_Frame,0.047,-0.012068,-0.308104,0.454,1.28,-9.936,1.6600000000000002e-06,2.413e-05,3.779e-05,"$VNYMR,-150.691,+003.133,+001.809,+00.0166,+00.2413,+00.3779,+00.454,+01.280,-09.936,+00.047000,-00.012068,-00.308104*62
"
1763590184.7205572,imu1_Frame,0.069864,-0.062782,-0.319038,1.151,1.167,-9.463,1.55e-06,2.4740000000000004e-05,3.739e-05,"$VNYMR,-151.142,+003.059,+001.865,+00.0155,+00.2474,+00.3739,+01.151,+01.167,-09.463,+00.069864,-00.062782,-00.319038*62
"
1763590184.7507205,imu1_Frame,0.031005,-0.001461,-0.326664,-1.281,-0.547,-9.875,2.25e-06,2.448e-05,3.69e-05,"$VNYMR,-151.611,+003.017,+001.897,+00.0225,+00.2448,+00.3690,-01.281,-00.547,-09.875,+00.031005,-00.001461,-00.326664*65
"
1763590184.7707934,imu1_Frame,-0.011401,0.028342,-0.312619,0.386,1.373,-9.743,1.08e-06,2.415e-05,3.751e-05,"$VNYMR,-152.065,+002.997,+001.871,+00.0108,+00.2415,+00.3751,+00.386,+01.373,-09.743,-00.011401,+00.028342,-00.312619*6C
"
1763590184.8003793,imu1_Frame,0.002433,0.024432,-0.307573,0.422,1.18,-9.198,1.32e-06,2.51e-05,3.698e-05,"$VNYMR,-152.537,+002.979,+001.837,+00.0132,+00.2510,+00.3698,+00.422,+01.180,-09.198,+00.002433,+00.024432,-00.307573*60
"
1763590184.821007,imu1_Frame,0.009383,-0.018128,-0.324889,0.683,0.353,-8.841,1.08e-06,2.3670000000000002e-05,3.7380000000000005e-05,"$VNYMR,-153.005,+002.996,+001.811,+00.0108,+00.2367,+00.3738,+00.683,+00.353,-08.841,+00.009383,-00.018128,-00.324889*65
"
1763590184.8507125,imu1_Frame,-0.001735,0.06284,-0.321247,-0.509,0.492,-9.917,8.500000000000001e-07,2.4030000000000002e-05,3.7630000000000004e-05,"$VNYMR,-153.468,+003.031,+001.771,+00.0085,+00.2403,+00.3763,-00.509,+00.492,-09.917,-00.001735,+00.062840,-00.321247*61
"
1763590184.870799,imu1_Frame,0.029248,0.026086,-0.312938,1.16,1.149,-10.322,1.19e-06,2.306e-05,3.752e-05,"$VNYMR,-153.922,+003.085,+001.752,+00.0119,+00.2306,+00.3752,+01.160,+01.149,-10.322,+00.029248,+00.026086,-00.312938*60
"
1763590184.9010396,imu1_Frame,0.025788,0.045908,-0.309859,0.869,0.469,-10.472,1.08e-06,2.4030000000000002e-05,3.751e-05,"$VNYMR,-154.379,+003.147,+001.756,+00.0108,+00.2403,+00.3751,+00.869,+00.469,-10.472,+00.025788,+00.045908,-00.309859*6F
"
1763590184.9202955,imu1_Frame,0.036553,0.073392,-0.312362,1.431,0.547,-10.627,5.000000000000001e-07,2.44e-05,3.827e-05,"$VNYMR,-154.821,+003.221,+001.771,+00.0050,+00.2440,+00.3827,+01.431,+00.547,-10.627,+00.036553,+00.073392,-00.312362*66
"
1763590184.9510353,imu1_Frame,0.028301,-0.010911,-0.311136,0.803,0.097,-10.208,1.19e-06,2.354e-05,3.83e-05,"$VNYMR,-155.266,+003.253,+001.791,+00.0119,+00.2354,+00.3830,+00.803,+00.097,-10.208,+00.028301,-00.010911,-00.311136*6C
"
1763590184.9706752,imu1_Frame,0.00918,0.021006,-0.308509,1.235,0.697,-9.593,8.4e-07,2.379e-05,3.803000000000001e-05,"$VNYMR,-155.707,+003.306,+001.788,+00.0084,+00.2379,+00.3803,+01.235,+00.697,-09.593,+00.009180,+00.021006,-00.308509*6B
"
1763590185.0007365,imu1_Frame,0.007522,-0.041322,-0.314056,1.46,0.707,-8.815,3e-08,2.4290000000000003e-05,3.851e-05,"$VNYMR,-156.145,+003.341,+001.766,+00.0003,+00.2429,+00.3851,+01.460,+00.707,-08.815,+00.007522,-00.041322,-00.314056*68
"
