bag_t,ros_t,gyro_x,gyro_y,gyro_z,acc_x,acc_y,acc_z,mag_x,mag_y,mag_z,raw
1761939167.1925664,1761939167.1923614,-8.447393579652555e-06,-9.435249936281346e-05,-1.4538592669112765e-05,-0.035,-0.222,9.851,2.479e-05,4.43e-06,3.381e-05,"$VNYMR,-077.706,-001.308,+000.151,+00.0443,+00.2479,-00.3381,-00.222,-00.035,-09.851,-00.005406,-00.000484,+00.000833*64"
1761939167.21222,1761939167.2120416,2.0088739690454732e-05,4.054399852382827e-05,2.0245819323134223e-06,-0.05,-0.261,9.889,2.4690000000000002e-05,4.53e-06,3.358e-05,"$VNYMR,-077.705,-001.309,+000.156,+00.0453,+00.2469,-00.3358,-00.261,-00.050,-09.889,+00.002323,+00.001151,-00.000116*67"
1761939167.2371304,1761939167.2370107,-3.506366467256608e-05,1.0698868314725242e-05,-1.7976891295541595e-06,0.013,-0.242,9.959,2.4690000000000002e-05,4.62e-06,3.38e-05,"$VNYMR,-077.706,-001.307,+000.151,+00.0462,+00.2469,-00.3380,-00.242,+00.013,-09.959,+00.000613,-00.002009,+00.000103*69"
1761939167.2621174,1761939167.2620306,5.569345643113905e-05,-2.4853488548399253e-05,5.550147021341967e-06,-0.026,-0.2,9.794,2.44e-05,4.62e-06,3.3350000000000004e-05,"$VNYMR,-077.706,-001.308,+000.155,+00.0462,+00.2440,-00.3335,-00.200,-00.026,-09.794,-00.001424,+00.003191,-00.000318*66"
1761939167.287266,1761939167.287039,-1.1676252695842065e-05,9.180431865490173e-05,1.7418385934903408e-05,-0.026,-0.214,9.91,2.4690000000000002e-05,4.62e-06,3.336e-05,"$VNYMR,-077.706,-001.308,+000.152,+00.0462,+00.2469,-00.3336,-00.214,-00.026,-09.910,+00.005260,-00.000669,-00.000998*6D"
1761939167.3121297,1761939167.311975,9.302604913129778e-06,-6.674139059626317e-05,-1.9512781037296604e-05,-0.022,-0.238,9.814,2.479e-05,4.43e-06,3.337e-05,"$VNYMR,-077.706,-001.308,+000.154,+00.0443,+00.2479,-00.3337,-00.238,-00.022,-09.814,-00.003824,+00.000533,+00.001118*60"
1761939167.3371925,1761939167.3370233,-3.2236231284335265e-05,8.192575508861383e-05,-1.3316862192716735e-05,-0.045,-0.235,10.006,2.4690000000000002e-05,4.33e-06,3.392e-05,"$VNYMR,-077.706,-001.308,+000.154,+00.0433,+00.2469,-00.3392,-00.235,-00.045,-10.006,+00.004694,-00.001847,+00.000763*60"
1761939167.36213,1761939167.3620434,4.398229715025711e-06,-6.504842122182866e-05,2.5656340004316642e-06,-0.016,-0.226,9.826,2.44e-05,4.72e-06,3.291e-05,"$VNYMR,-077.705,-001.308,+000.153,+00.0472,+00.2440,-00.3291,-00.226,-00.016,-09.826,-00.003727,+00.000252,-00.000147*69"
1761939167.3871033,1761939167.3870099,7.138396640656809e-06,7.117452689632877e-05,-3.193952531149623e-06,0.022,-0.225,9.91,2.479e-05,4.43e-06,3.348e-05,"$VNYMR,-077.707,-001.308,+000.155,+00.0443,+00.2479,-00.3348,-00.225,+00.022,-09.910,+00.004078,+00.000409,+00.000183*6C"
1761939167.412176,1761939167.4120586,2.2549653935766736e-05,-4.583234615737109e-05,1.2304571226560024e-05,-0.035,-0.232,9.847,2.527e-05,4.6300000000000006e-06,3.348e-05,"$VNYMR,-077.706,-001.308,+000.153,+00.0463,+00.2527,-00.3348,-00.232,-00.035,-09.847,-00.002626,+00.001292,-00.000705*60"
1761939167.4371512,1761939167.4370306,-2.181661564992912e-06,1.0681415022205297e-05,-3.9968039870670145e-06,-0.047,-0.247,9.883,2.449e-05,4.52e-06,3.358e-05,"$VNYMR,-077.707,-001.308,+000.156,+00.0452,+00.2449,-00.3358,-00.247,-00.047,-09.883,+00.000612,-00.000125,+00.000229*67"
1761939167.4621797,1761939167.4620826,-2.5865779514555966e-05,-2.689552377323262e-05,2.2968532956245374e-05,-0.022,-0.204,9.895,2.488e-05,4.72e-06,3.369e-05,"$VNYMR,-077.709,-001.308,+000.153,+00.0472,+00.2488,-00.3369,-00.204,-00.022,-09.895,-00.001541,-00.001482,-00.001316*63"
1761939167.4871716,1761939167.4870734,1.973967384005587e-05,-3.221877799181532e-05,-5.777039824101231e-06,-0.017,-0.22,9.861,2.478e-05,4.72e-06,3.336e-05,"$VNYMR,-077.709,-001.309,+000.154,+00.0472,+00.2478,-00.3336,-00.220,-00.017,-09.861,-00.001846,+00.001131,+00.000331*68"
1761939167.5122309,1761939167.5121171,-9.145525280450287e-06,4.1311943394705784e-05,3.17649923862968e-06,-0.0,-0.215,9.911,2.478e-05,4.72e-06,3.347e-05,"$VNYMR,-077.708,-001.309,+000.153,+00.0472,+00.2478,-00.3347,-00.215,-00.000,-09.911,+00.002367,-00.000524,-00.000182*68"
1761939167.5372894,1761939167.537128,-2.326523892908441e-05,-1.5289084247470327e-05,7.522369076095561e-06,-0.033,-0.225,9.871,2.498e-05,4.72e-06,3.3910000000000006e-05,"$VNYMR,-077.708,-001.310,+000.153,+00.0472,+00.2498,-00.3391,-00.225,-00.033,-09.871,-00.000876,-00.001333,-00.000431*62"
1761939167.5622566,1761939167.5621285,-2.4940755010998967e-05,2.7995081201989044e-05,-2.0629791758572976e-05,-0.056,-0.194,9.932,2.498e-05,4.53e-06,3.414e-05,"$VNYMR,-077.708,-001.310,+000.153,+00.0453,+00.2498,-00.3414,-00.194,-00.056,-09.932,+00.001604,-00.001429,+00.001182*6D"
1761939167.587291,1761939167.5871704,3.4033920413889424e-06,-1.832595714594046e-05,3.0892327760299633e-06,-0.014,-0.211,9.843,2.4690000000000002e-05,4.53e-06,3.325e-05,"$VNYMR,-077.709,-001.310,+000.153,+00.0453,+00.2469,-00.3325,-00.211,-00.014,-09.843,-00.001050,+00.000195,-00.000177*61"
1761939167.6123202,1761939167.6121764,-7.365289443416071e-06,-2.2863813201125718e-06,-8.15068760681352e-06,0.01,-0.197,9.929,2.44e-05,4.52e-06,3.38e-05,"$VNYMR,-077.709,-001.310,+000.154,+00.0452,+00.2440,-00.3380,-00.197,+00.010,-09.929,-00.000131,-00.000422,+00.000467*6B"
1761939167.6374302,1761939167.637206,1.7610372152622784e-05,-3.131120678077827e-05,1.5969762655748117e-05,-0.029,-0.216,9.867,2.4590000000000003e-05,4.62e-06,3.369e-05,"$VNYMR,-077.710,-001.310,+000.153,+00.0462,+00.2459,-00.3369,-00.216,-00.029,-09.867,-00.001794,+00.001009,-00.000915*69"
1761939167.6652493,1761939167.6649122,2.183406894244906e-05,2.3841197582242543e-05,-1.1274826967883368e-05,-0.022,-0.235,9.893,2.5080000000000004e-05,4.6300000000000006e-06,3.336e-05,"$VNYMR,-077.710,-001.310,+000.154,+00.0463,+00.2508,-00.3336,-00.235,-00.022,-09.893,+00.001366,+00.001251,+00.000646*6E"
1761939167.687621,1761939167.687258,-3.686135380212024e-05,-1.738347934986352e-05,1.0122909661567112e-05,-0.033,-0.223,9.931,2.44e-05,4.52e-06,3.358e-05,"$VNYMR,-077.710,-001.310,+000.152,+00.0452,+00.2440,-00.3358,-00.223,-00.033,-09.931,-00.000996,-00.002112,-00.000580*6D"
1761939167.71246,1761939167.7121987,-3.235840433197487e-05,9.075712110370513e-07,-2.352703831688356e-05,-0.017,-0.221,9.912,2.449e-05,4.52e-06,3.38e-05,"$VNYMR,-077.709,-001.310,+000.153,+00.0452,+00.2449,-00.3380,-00.221,-00.017,-09.912,+00.000052,-00.001854,+00.001348*67"
1761939167.737364,1761939167.7371883,-1.5184364492350667e-05,-7.67944870877505e-06,-3.5081117965086026e-06,0.002,-0.26,9.904,2.479e-05,4.53e-06,3.336e-05,"$VNYMR,-077.709,-001.310,+000.153,+00.0453,+00.2479,-00.3336,-00.260,+00.002,-09.904,-00.000440,-00.000870,+00.000201*63"
1761939167.7623725,1761939167.7622137,2.3282692221604356e-05,-1.2740903539558605e-05,-1.2601277199399058e-05,-0.02,-0.238,9.837,2.488e-05,4.8200000000000004e-06,3.357e-05,"$VNYMR,-077.708,-001.310,+000.153,+00.0482,+00.2488,-00.3357,-00.238,-00.020,-09.837,-00.000730,+00.001334,+00.000722*61"
1761939167.7874227,1761939167.7872865,-1.0297442586766545e-06,-2.303834612632515e-06,1.4014993893514466e-05,-0.027,-0.234,9.946,2.4690000000000002e-05,4.8200000000000004e-06,3.3350000000000004e-05,"$VNYMR,-077.707,-001.310,+000.151,+00.0482,+00.2469,-00.3335,-00.234,-00.027,-09.946,-00.000132,-00.000059,-00.000803*6A"
1761939167.8124275,1761939167.8122792,-3.822271061867582e-06,-2.2863813201125715e-05,1.0088003076527223e-05,-0.033,-0.26,9.827,2.449e-05,4.62e-06,3.402e-05,"$VNYMR,-077.708,-001.310,+000.151,+00.0462,+00.2449,-00.3402,-00.260,-00.033,-09.827,-00.001310,-00.000219,-00.000578*6C"
1761939167.8375006,1761939167.8373053,-2.0769418098732523e-06,-7.819075048934597e-06,9.250245035569946e-06,-0.045,-0.25,9.889,2.488e-05,4.72e-06,3.358e-05,"$VNYMR,-077.710,-001.309,+000.150,+00.0472,+00.2488,-00.3358,-00.250,-00.045,-09.889,-00.000448,-00.000119,-00.000530*6A"
1761939167.8624973,1761939167.862291,3.804817769347639e-05,-6.003932626860494e-06,-1.679006740418545e-05,-0.017,-0.231,9.854,2.479e-05,4.62e-06,3.347e-05,"$VNYMR,-077.707,-001.310,+000.150,+00.0462,+00.2479,-00.3347,-00.231,-00.017,-09.854,-00.000344,+00.002180,+00.000962*67"
1761939167.887735,1761939167.887517,2.9670597283903606e-06,-1.0576695267085637e-05,8.325220532012952e-06,-0.029,-0.222,9.876,2.4690000000000002e-05,4.53e-06,3.303e-05,"$VNYMR,-077.707,-001.309,+000.150,+00.0453,+00.2469,-00.3303,-00.222,-00.029,-09.876,-00.000606,+00.000170,-00.000477*62"
1761939167.9125364,1761939167.9123416,-8.552113334772215e-06,-3.363249468593073e-05,-6.719517620178168e-06,-0.012,-0.236,9.889,2.449e-05,4.52e-06,3.336e-05,"$VNYMR,-077.706,-001.308,+000.150,+00.0452,+00.2449,-00.3336,-00.236,-00.012,-09.889,-00.001927,-00.000490,+00.000385*66"
1761939167.9376824,1761939167.937418,-5.4279739737023655e-06,1.9250981649497455e-05,1.4922565104551517e-05,-0.041,-0.224,9.924,2.4690000000000002e-05,4.72e-06,3.358e-05,"$VNYMR,-077.707,-001.308,+000.149,+00.0472,+00.2469,-00.3358,-00.224,-00.041,-09.924,+00.001103,-00.000311,-00.000855*62"
1761939167.9626012,1761939167.9623787,5.9079395180008056e-05,-1.5812683023068626e-05,2.361430477948328e-05,-0.029,-0.232,9.867,2.4590000000000003e-05,4.72e-06,3.357e-05,"$VNYMR,-077.709,-001.307,+000.149,+00.0472,+00.2459,-00.3357,-00.232,-00.029,-09.867,-00.000906,+00.003385,-00.001353*6E"
1761939167.9890049,1761939167.9882174,-7.068583470577034e-06,2.5970499269675624e-05,6.475171524898963e-06,-0.036,-0.228,9.869,2.488e-05,4.7300000000000005e-06,3.291e-05,"$VNYMR,-077.707,-001.309,+000.150,+00.0473,+00.2488,-00.3291,-00.228,-00.036,-09.869,+00.001488,-00.000405,-00.000371*6C"
1761939168.0135496,1761939168.012579,-9.896016858807849e-06,1.7854718247901993e-05,1.2566370614359173e-05,-0.056,-0.237,9.863,2.449e-05,4.62e-06,3.358e-05,"$VNYMR,-077.705,-001.309,+000.149,+00.0462,+00.2449,-00.3358,-00.237,-00.056,-09.863,+00.001023,-00.000567,-00.000720*6D"
1761939168.0381174,1761939168.0375133,-1.0873401239924672e-05,-9.965830028887622e-06,2.3212879051524585e-06,-0.013,-0.217,9.856,2.44e-05,4.72e-06,3.236e-05,"$VNYMR,-077.704,-001.310,+000.151,+00.0472,+00.2440,-00.3236,-00.217,-00.013,-09.856,-00.000571,-00.000623,-00.000133*6B"
1761939168.0632977,1761939168.0626993,6.928957130417488e-06,-3.2114058236695663e-06,-1.1466813185602746e-05,-0.001,-0.201,9.928,2.4590000000000003e-05,4.62e-06,3.336e-05,"$VNYMR,-077.704,-001.309,+000.148,+00.0462,+00.2459,-00.3336,-00.201,-00.001,-09.928,-00.000184,+00.000397,+00.000657*6E"
1761939168.088429,1761939168.087745,-8.290313946973065e-06,-1.7418385934903408e-05,1.4730578886832141e-05,-0.031,-0.215,9.844,2.5180000000000003e-05,4.53e-06,3.392e-05,"$VNYMR,-077.705,-001.308,+000.148,+00.0453,+00.2518,-00.3392,-00.215,-00.031,-09.844,-00.000998,-00.000475,-00.000844*69"
1761939168.1135874,1761939168.1126707,-5.759586531581288e-07,2.218313479284793e-05,1.117010721276371e-05,-0.059,-0.204,9.901,2.4690000000000002e-05,4.62e-06,3.347e-05,"$VNYMR,-077.704,-001.307,+000.148,+00.0462,+00.2469,-00.3347,-00.204,-00.059,-09.901,+00.001271,-00.000033,-00.000640*63"
1761939168.1381142,1761939168.1374729,-1.8605209826259556e-05,-1.5481070465189703e-05,-2.546435378659727e-05,-0.021,-0.214,9.821,2.4590000000000003e-05,4.72e-06,3.346e-05,"$VNYMR,-077.704,-001.307,+000.150,+00.0472,+00.2459,-00.3346,-00.214,-00.021,-09.821,-00.000887,-00.001066,+00.001459*6C"
1761939168.1631184,1761939168.1624722,-1.9460421159736775e-05,2.7611108766550295e-05,9.494591130849153e-06,-0.03,-0.218,9.952,2.4200000000000002e-05,4.710000000000001e-06,3.3350000000000004e-05,"$VNYMR,-077.704,-001.308,+000.150,+00.0471,+00.2420,-00.3335,-00.218,-00.030,-09.952,+00.001582,-00.001115,-00.000544*63"
1761939168.1880474,1761939168.1874247,-2.460914245312005e-06,-2.0158552860534506e-05,-1.7296212887263805e-05,-0.016,-0.207,9.858,2.41e-05,4.51e-06,3.413e-05,"$VNYMR,-077.703,-001.310,+000.148,+00.0451,+00.2410,-00.3413,-00.207,-00.016,-09.858,-00.001155,-00.000141,+00.000991*6D"
1761939168.2131162,1761939168.2124293,-7.871434926494426e-06,3.928736146239236e-05,2.722713633111154e-06,-0.008,-0.221,9.897,2.449e-05,4.81e-06,3.346e-05,"$VNYMR,-077.703,-001.310,+000.150,+00.0481,+00.2449,-00.3346,-00.221,-00.008,-09.897,+00.002251,-00.000451,-00.000156*69"
1761939168.2385027,1761939168.2376416,1.5323990832510212e-05,-6.248278722139699e-06,-2.0123646275494617e-05,-0.015,-0.231,9.843,2.468e-05,4.62e-06,3.479e-05,"$VNYMR,-077.702,-001.310,+000.150,+00.0462,+00.2468,-00.3479,-00.231,-00.015,-09.843,-00.000358,+00.000878,+00.001153*66"
1761939168.2641647,1761939168.2638893,4.5902159327450866e-05,1.1047934165124105e-05,-7.976154681614086e-06,-0.05,-0.241,9.95,2.479e-05,4.53e-06,3.381e-05,"$VNYMR,-077.701,-001.310,+000.151,+00.0453,+00.2479,-00.3381,-00.241,-00.050,-09.950,+00.000633,+00.002630,+00.000457*6D"
1761939168.289409,1761939168.288724,-3.490658503988659e-05,-2.2567107228286684e-05,8.395033702092725e-06,-0.024,-0.225,9.869,2.478e-05,4.62e-06,3.38e-05,"$VNYMR,-077.702,-001.309,+000.151,+00.0462,+00.2478,-00.3380,-00.225,-00.024,-09.869,-00.001293,-00.002000,-00.000481*69"
1761939168.312677,1761939168.3124301,-8.133234314293576e-06,1.5899949485668344e-05,2.1380283336930536e-05,-0.036,-0.175,10.178,2.4390000000000002e-05,4.62e-06,3.3910000000000006e-05,"$VNYMR,-077.703,-001.306,+000.152,+00.0462,+00.2439,-00.3391,-00.175,-00.036,-10.178,+00.000911,-00.000466,-00.001225*6C"
1761939168.337603,1761939168.3374157,3.286454981505322e-05,-4.338888520457903e-05,-1.8465583486100006e-05,-0.002,-0.266,9.737,2.557e-05,4.540000000000001e-06,3.348e-05,"$VNYMR,-077.702,-001.308,+000.151,+00.0454,+00.2557,-00.3348,-00.266,-00.002,-09.737,-00.002486,+00.001883,+00.001058*62"
1761939168.362719,1761939168.3624823,2.2951079663725433e-05,4.5518186892012114e-05,-3.7350045992678654e-06,-0.001,-0.234,10.021,2.498e-05,4.6300000000000006e-06,3.369e-05,"$VNYMR,-077.701,-001.307,+000.153,+00.0463,+00.2498,-00.3369,-00.234,-00.001,-10.021,+00.002608,+00.001315,+00.000214*68"
1761939168.3885145,1761939168.3875482,-1.6929693744344997e-05,-3.841469683639519e-05,-6.440264939859077e-06,-0.02,-0.244,9.779,2.44e-05,4.420000000000001e-06,3.381e-05,"$VNYMR,-077.702,-001.308,+000.151,+00.0442,+00.2440,-00.3381,-00.244,-00.020,-09.779,-00.002201,-00.000970,+00.000369*6E"
1761939168.4144015,1761939168.4125729,1.5481070465189703e-05,1.0786134777324956e-05,3.6302848441482052e-06,-0.032,-0.226,9.934,2.537e-05,4.540000000000001e-06,3.337e-05,"$VNYMR,-077.703,-001.307,+000.152,+00.0454,+00.2537,-00.3337,-00.226,-00.032,-09.934,+00.000618,+00.000887,-00.000208*6F"
1761939168.4372385,1761939168.4366055,-7.609635538695278e-06,9.94837673636768e-07,-1.2217304763960308e-07,-0.023,-0.229,9.897,2.488e-05,4.72e-06,3.302e-05,"$VNYMR,-077.703,-001.308,+000.151,+00.0472,+00.2488,-00.3302,-00.229,-00.023,-09.897,+00.000057,-00.000436,+00.000007*65"
1761939168.4636075,1761939168.46267,1.5498523757709647e-05,-1.5777776438028738e-05,-6.0388392119003805e-06,-0.031,-0.24,9.875,2.449e-05,4.52e-06,3.38e-05,"$VNYMR,-077.703,-001.307,+000.152,+00.0452,+00.2449,-00.3380,-00.240,-00.031,-09.875,-00.000904,+00.000888,+00.000346*6C"
1761939168.4876661,1761939168.4867156,-1.270599695451872e-05,7.661995416255106e-06,1.4468779499032992e-05,-0.044,-0.239,9.92,2.4690000000000002e-05,4.43e-06,3.414e-05,"$VNYMR,-077.703,-001.307,+000.152,+00.0443,+00.2469,-00.3414,-00.239,-00.044,-09.920,+00.000439,-00.000728,-00.000829*6B"
1761939168.513558,1761939168.512643,3.4906585039886593e-07,-3.218387140677543e-05,1.0402162341886204e-05,-0.035,-0.238,9.899,2.449e-05,4.62e-06,3.369e-05,"$VNYMR,-077.702,-001.306,+000.151,+00.0462,+00.2449,-00.3369,-00.238,-00.035,-09.899,-00.001844,+00.000020,-00.000596*61"
1761939168.5374866,1761939168.5369449,7.155849933176751e-06,-4.398229715025711e-06,8.185594191853407e-06,-0.024,-0.224,9.924,2.4390000000000002e-05,4.72e-06,3.346e-05,"$VNYMR,-077.702,-001.305,+000.151,+00.0472,+00.2439,-00.3346,-00.224,-00.024,-09.924,-00.000252,+00.000410,-00.000469*69"
1761939168.56301,1761939168.5625916,-5.742133239061343e-06,-8.779006137531477e-06,-6.771877497737999e-06,-0.012,-0.232,9.844,2.4690000000000002e-05,4.62e-06,3.347e-05,"$VNYMR,-077.701,-001.306,+000.150,+00.0462,+00.2469,-00.3347,-00.232,-00.012,-09.844,-00.000503,-00.000329,+00.000388*6E"
1761939168.5867493,1761939168.5865533,9.302604913129778e-06,1.7191493132144147e-05,-2.600540585471551e-05,-0.034,-0.243,9.921,2.44e-05,4.43e-06,3.314e-05,"$VNYMR,-077.699,-001.306,+000.150,+00.0443,+00.2440,-00.3314,-00.243,-00.034,-09.921,+00.000985,+00.000533,+00.001490*60"
1761939168.6127212,1761939168.6125076,1.8849555921538758e-05,-8.796459430051422e-06,-3.9968039870670145e-06,-0.016,-0.217,9.882,2.43e-05,4.710000000000001e-06,3.379e-05,"$VNYMR,-077.700,-001.305,+000.150,+00.0471,+00.2430,-00.3379,-00.217,-00.016,-09.882,-00.000504,+00.001080,+00.000229*6C"
1761939168.6370273,1761939168.6366496,4.5727626402251436e-06,4.86946861306418e-06,1.937315469713706e-05,-0.036,-0.229,9.872,2.488e-05,4.92e-06,3.357e-05,"$VNYMR,-077.700,-001.306,+000.151,+00.0492,+00.2488,-00.3357,-00.229,-00.036,-09.872,+00.000279,+00.000262,-00.001110*66"
1761939168.6627972,1761939168.6625679,-1.2810716709638379e-05,-4.9567350756638966e-06,2.7576202181510406e-05,-0.041,-0.201,9.873,2.5180000000000003e-05,4.7300000000000005e-06,3.325e-05,"$VNYMR,-077.702,-001.305,+000.151,+00.0473,+00.2518,-00.3325,-00.201,-00.041,-09.873,-00.000284,-00.000734,-00.001580*67"
1761939168.6876528,1761939168.6870203,2.9408797896104453e-05,6.265732014659643e-06,-6.824237375297829e-06,-0.026,-0.212,9.883,2.498e-05,4.6300000000000006e-06,3.358e-05,"$VNYMR,-077.702,-001.304,+000.151,+00.0463,+00.2498,-00.3358,-00.212,-00.026,-09.883,+00.000359,+00.001685,+00.000391*62"
1761939168.713646,1761939168.7126703,2.6110125609835168e-05,6.300638599699529e-06,-1.0105456369047168e-05,-0.029,-0.187,9.81,2.449e-05,4.52e-06,3.38e-05,"$VNYMR,-077.702,-001.303,+000.150,+00.0452,+00.2449,-00.3380,-00.187,-00.029,-09.810,+00.000361,+00.001496,+00.000579*6E"
1761939168.7370026,1761939168.736655,-2.879793265790644e-06,1.949532774477666e-05,-6.126105674500097e-06,-0.019,-0.224,9.877,2.43e-05,4.62e-06,3.369e-05,"$VNYMR,-077.703,-001.303,+000.152,+00.0462,+00.2430,-00.3369,-00.224,-00.019,-09.877,+00.001117,-00.000165,+00.000351*6F"
1761939168.7636142,1761939168.7626889,-3.7280232822598876e-05,2.1502456384570142e-05,1.0524335389525808e-05,-0.027,-0.256,9.941,2.478e-05,4.72e-06,3.358e-05,"$VNYMR,-077.703,-001.302,+000.149,+00.0472,+00.2478,-00.3358,-00.256,-00.027,-09.941,+00.001232,-00.002136,-00.000603*63"
1761939168.7878,1761939168.7875388,-7.347836150896127e-06,-6.637487145334435e-05,-1.0070549784007283e-05,-0.026,-0.25,9.829,2.4690000000000002e-05,4.8200000000000004e-06,3.346e-05,"$VNYMR,-077.702,-001.303,+000.152,+00.0482,+00.2469,-00.3346,-00.250,-00.026,-09.829,-00.003803,-00.000421,+00.000577*6A"
1761939168.813608,1761939168.8128083,-1.8867009214058702e-05,8.681267699419796e-05,1.0698868314725242e-05,-0.033,-0.255,9.932,2.5169999999999998e-05,4.7300000000000005e-06,3.336e-05,"$VNYMR,-077.700,-001.304,+000.151,+00.0473,+00.2517,-00.3336,-00.255,-00.033,-09.932,+00.004974,-00.001081,-00.000613*6F"
1761939168.8369465,1761939168.8366184,-9.424777960769379e-07,-0.00010889109203192621,-7.033676885537148e-06,-0.029,-0.224,9.831,2.498e-05,4.6300000000000006e-06,3.325e-05,"$VNYMR,-077.700,-001.305,+000.151,+00.0463,+00.2498,-00.3325,-00.224,-00.029,-09.831,-00.006239,-00.000054,+00.000403*6E"
1761939168.8628151,1761939168.8625941,2.4155356847601522e-05,8.81216739331937e-05,1.3334315485236678e-05,-0.028,-0.218,9.931,2.449e-05,4.52e-06,3.325e-05,"$VNYMR,-077.702,-001.304,+000.152,+00.0452,+00.2449,-00.3325,-00.218,-00.028,-09.931,+00.005049,+00.001384,-00.000764*62"
1761939168.8926334,1761939168.8919952,2.3876104167282428e-05,-7.073819458333017e-05,-2.4783675378319483e-06,-0.005,-0.201,9.881,2.478e-05,4.8200000000000004e-06,3.346e-05,"$VNYMR,-077.702,-001.303,+000.150,+00.0482,+00.2478,-00.3346,-00.201,-00.005,-09.881,-00.004053,+00.001368,+00.000142*6A"
1761939168.9127324,1761939168.912498,-3.808308427851627e-05,6.841690667817772e-05,1.5236724369910496e-05,-0.045,-0.215,9.959,2.41e-05,4.710000000000001e-06,3.313e-05,"$VNYMR,-077.703,-001.304,+000.153,+00.0471,+00.2410,-00.3313,-00.215,-00.045,-09.959,+00.003920,-00.002182,-00.000873*6A"
1761939168.9376383,1761939168.9374406,-8.133234314293576e-06,-3.59188760060433e-05,-1.6336281798666925e-05,-0.013,-0.225,9.853,2.449e-05,4.420000000000001e-06,3.392e-05,"$VNYMR,-077.701,-001.304,+000.150,+00.0442,+00.2449,-00.3392,-00.225,-00.013,-09.853,-00.002058,-00.000466,+00.000936*6F"
1761939168.9626195,1761939168.9624786,7.906341511534313e-06,2.04378055408536e-05,-1.1798425743481667e-05,-0.014,-0.262,9.922,2.449e-05,4.52e-06,3.325e-05,"$VNYMR,-077.700,-001.304,+000.152,+00.0452,+00.2449,-00.3325,-00.262,-00.014,-09.922,+00.001171,+00.000453,+00.000676*66"
1761939168.9867187,1761939168.9865665,-3.6599554414321086e-05,8.133234314293576e-06,5.5676003138619115e-06,-0.02,-0.244,9.892,2.478e-05,4.62e-06,3.38e-05,"$VNYMR,-077.700,-001.305,+000.150,+00.0462,+00.2478,-00.3380,-00.244,-00.020,-09.892,+00.000466,-00.002097,-00.000319*62"
1761939169.0127213,1761939169.012541,1.975712713257581e-05,-1.855284994869972e-05,9.250245035569947e-07,-0.035,-0.24,9.851,2.43e-05,4.8200000000000004e-06,3.224e-05,"$VNYMR,-077.699,-001.306,+000.152,+00.0482,+00.2430,-00.3224,-00.240,-00.035,-09.851,-00.001063,+00.001132,-00.000053*60"
1761939169.0368176,1761939169.0366125,-9.389871375729492e-06,2.1118483949131386e-05,1.8605209826259556e-05,-0.026,-0.227,9.877,2.4590000000000003e-05,4.43e-06,3.3700000000000006e-05,"$VNYMR,-077.699,-001.306,+000.150,+00.0443,+00.2459,-00.3370,-00.227,-00.026,-09.877,+00.001210,-00.000538,-00.001066*69"
1761939169.0627375,1761939169.0625606,8.637634468119937e-05,-3.2916909692613055e-05,-1.7540558982543014e-05,-0.02,-0.271,9.735,2.479e-05,4.72e-06,3.313e-05,"$VNYMR,-077.698,-001.305,+000.151,+00.0472,+00.2479,-00.3313,-00.271,-00.020,-09.735,-00.001886,+00.004949,+00.001005*6B"
1761939169.087003,1761939169.086734,-3.8589229761594624e-05,4.825835381764321e-05,1.1501719770642631e-05,-0.046,-0.22,9.979,2.43e-05,4.52e-06,3.314e-05,"$VNYMR,-077.697,-001.304,+000.150,+00.0452,+00.2430,-00.3314,-00.220,-00.046,-09.979,+00.002765,-00.002211,-00.000659*67"
1761939169.1124077,1761939169.1122022,5.201081170943102e-06,-5.424483315198376e-05,-1.726130630222392e-05,-0.03,-0.217,9.798,2.498e-05,4.72e-06,3.336e-05,"$VNYMR,-077.696,-001.304,+000.150,+00.0472,+00.2498,-00.3336,-00.217,-00.030,-09.798,-00.003108,+00.000298,+00.000989*69"
1761939169.1366427,1761939169.136518,-2.504547476611863e-05,3.455751918948772e-05,9.68657734856853e-06,-0.006,-0.21,9.938,2.4590000000000003e-05,4.62e-06,3.336e-05,"$VNYMR,-077.696,-001.305,+000.152,+00.0462,+00.2459,-00.3336,-00.210,-00.006,-09.938,+00.001980,-00.001435,-00.000555*61"
1761939169.1652102,1761939169.1637135,6.457718232379019e-06,-1.879719604397893e-05,1.3055062804917584e-05,-0.021,-0.209,9.813,2.4390000000000002e-05,4.81e-06,3.3350000000000004e-05,"$VNYMR,-077.696,-001.305,+000.150,+00.0481,+00.2439,-00.3335,-00.209,-00.021,-09.813,-00.001077,+00.000370,-00.000748*66"
1761939169.186987,1761939169.1866984,-1.4329153158873446e-05,2.066469834361286e-05,-4.084070449666731e-06,0.0,-0.212,9.939,2.5169999999999998e-05,4.8200000000000004e-06,3.336e-05,"$VNYMR,-077.695,-001.305,+000.151,+00.0482,+00.2517,-00.3336,-00.212,+00.000,-09.939,+00.001184,-00.000821,+00.000234*65"
1761939169.2120316,1761939169.2117288,6.108652381980153e-06,-2.0769418098732523e-06,3.822271061867582e-06,-0.014,-0.246,9.911,2.478e-05,4.62e-06,3.402e-05,"$VNYMR,-077.694,-001.306,+000.150,+00.0462,+00.2478,-00.3402,-00.246,-00.014,-09.911,-00.000119,+00.000350,-00.000219*69"
1761939169.2369099,1761939169.236576,1.4940018397071461e-05,2.801253449450899e-05,4.9916416607037824e-06,-0.047,-0.252,9.884,2.488e-05,4.8200000000000004e-06,3.324e-05,"$VNYMR,-077.694,-001.308,+000.152,+00.0482,+00.2488,-00.3324,-00.252,-00.047,-09.884,+00.001605,+00.000856,-00.000286*6F"
1761939169.2646632,1761939169.2631452,-9.52949771588904e-06,4.1364303272265605e-06,4.380776422505767e-06,-0.014,-0.223,9.899,2.41e-05,4.610000000000001e-06,3.424e-05,"$VNYMR,-077.694,-001.309,+000.150,+00.0461,+00.2410,-00.3424,-00.223,-00.014,-09.899,+00.000237,-00.000546,-00.000251*6F"
1761939169.287431,1761939169.2868156,1.0297442586766545e-06,-3.7000980142279786e-06,8.447393579652555e-06,-0.007,-0.194,9.846,2.449e-05,4.72e-06,3.346e-05,"$VNYMR,-077.694,-001.309,+000.152,+00.0472,+00.2449,-00.3346,-00.194,-00.007,-09.846,-00.000212,+00.000059,-00.000484*6D"
1761939169.3123631,1761939169.3119562,-1.1519173063162576e-06,2.7349309378751145e-05,-7.016223593017205e-06,-0.019,-0.206,9.938,2.4690000000000002e-05,4.72e-06,3.3350000000000004e-05,"$VNYMR,-077.692,-001.307,+000.151,+00.0472,+00.2469,-00.3335,-00.206,-00.019,-09.938,+00.001567,-00.000066,+00.000402*6F"
1761939169.337867,1761939169.3374968,8.063421144213802e-06,-2.204350845268838e-05,4.60766922526503e-06,-0.04,-0.209,9.838,2.449e-05,4.62e-06,3.402e-05,"$VNYMR,-077.692,-001.306,+000.152,+00.0462,+00.2449,-00.3402,-00.209,-00.040,-09.838,-00.001263,+00.000462,-00.000264*6C"
1761939169.3629072,1761939169.3620148,-1.8151424220741026e-06,3.368485456349056e-05,2.0769418098732523e-06,-0.036,-0.237,9.95,2.468e-05,4.81e-06,3.434e-05,"$VNYMR,-077.691,-001.305,+000.152,+00.0481,+00.2468,-00.3434,-00.237,-00.036,-09.950,+00.001930,-00.000104,-00.000119*65"
1761939169.3874187,1761939169.386818,2.2863813201125715e-05,-1.2025318546240932e-05,-1.9250981649497455e-05,-0.001,-0.227,9.841,2.449e-05,4.62e-06,3.336e-05,"$VNYMR,-077.691,-001.307,+000.152,+00.0462,+00.2449,-00.3336,-00.227,-00.001,-09.841,-00.000689,+00.001310,+00.001103*6E"
1761939169.4139924,1761939169.4131768,2.1711895894809462e-05,1.5027284859671177e-05,2.6406831582674206e-05,-0.029,-0.229,9.904,2.449e-05,4.62e-06,3.38e-05,"$VNYMR,-077.689,-001.307,+000.152,+00.0462,+00.2449,-00.3380,-00.229,-00.029,-09.904,+00.000861,+00.001244,-00.001513*63"
1761939169.4373415,1761939169.4368007,9.651670763528642e-06,-1.2566370614359173e-05,1.1047934165124105e-05,-0.018,-0.227,9.882,2.4690000000000002e-05,4.72e-06,3.302e-05,"$VNYMR,-077.690,-001.308,+000.151,+00.0472,+00.2469,-00.3302,-00.227,-00.018,-09.882,-00.000720,+00.000553,-00.000633*61"
1761939169.4628527,1761939169.4620306,3.926990816987241e-06,1.4451326206513047e-05,-3.438298626428829e-06,-0.022,-0.243,9.916,2.4390000000000002e-05,4.72e-06,3.346e-05,"$VNYMR,-077.690,-001.308,+000.152,+00.0472,+00.2439,-00.3346,-00.243,-00.022,-09.916,+00.000828,+00.000225,+00.000197*68"
1761939169.4871328,1761939169.486846,-1.361356816555577e-05,-1.2269664641520135e-05,1.5638150097869194e-05,-0.023,-0.23,9.85,2.43e-05,4.62e-06,3.38e-05,"$VNYMR,-077.690,-001.307,+000.151,+00.0462,+00.2430,-00.3380,-00.230,-00.023,-09.850,-00.000703,-00.000780,-00.000896*62"
1761939169.5123196,1761939169.51187,-9.73893722612836e-06,1.4294246573833558e-05,-6.003932626860494e-06,-0.031,-0.232,9.856,2.4690000000000002e-05,4.72e-06,3.302e-05,"$VNYMR,-077.691,-001.305,+000.151,+00.0472,+00.2469,-00.3302,-00.232,-00.031,-09.856,+00.000819,-00.000558,+00.000344*66"
1761939169.537009,1761939169.5366864,-2.4661502330679877e-05,-2.5830872929516076e-06,-7.522369076095561e-06,-0.049,-0.222,9.914,2.4590000000000003e-05,4.62e-06,3.369e-05,"$VNYMR,-077.690,-001.305,+000.151,+00.0462,+00.2459,-00.3369,-00.222,-00.049,-09.914,-00.000148,-00.001413,+00.000431*60"
1761939169.561962,1761939169.5617495,2.7523842303950577e-05,2.1676989309769574e-05,-4.537856055185257e-06,-0.022,-0.247,9.839,2.449e-05,4.52e-06,3.358e-05,"$VNYMR,-077.690,-001.304,+000.153,+00.0452,+00.2449,-00.3358,-00.247,-00.022,-09.839,+00.001242,+00.001577,+00.000260*6A"
1761939169.5869265,1761939169.5867293,-1.0611601852125524e-05,1.2095131716320705e-05,-1.2322024519079966e-05,-0.02,-0.236,9.903,2.43e-05,4.62e-06,3.369e-05,"$VNYMR,-077.690,-001.304,+000.152,+00.0462,+00.2430,-00.3369,-00.236,-00.020,-09.903,+00.000693,-00.000608,+00.000706*68"
1761939169.6119938,1761939169.6118066,-3.368485456349056e-06,7.1733032256966945e-06,1.6441001553786583e-05,0.004,-0.261,9.874,2.43e-05,4.62e-06,3.357e-05,"$VNYMR,-077.689,-001.306,+000.151,+00.0462,+00.2430,-00.3357,-00.261,+00.004,-09.874,+00.000411,-00.000193,-00.000942*6A"
1761939169.637001,1761939169.6368039,-1.0471975511965977e-07,1.5062191444711064e-05,5.672320068981571e-06,-0.011,-0.253,9.909,2.449e-05,4.52e-06,3.38e-05,"$VNYMR,-077.691,-001.308,+000.151,+00.0452,+00.2449,-00.3380,-00.253,-00.011,-09.909,+00.000863,-00.000006,-00.000325*6D"
1761939169.661984,1761939169.661803,-1.4870205226991688e-05,-8.779006137531477e-06,-5.253441048502932e-06,-0.023,-0.233,9.859,2.479e-05,4.53e-06,3.336e-05,"$VNYMR,-077.692,-001.308,+000.151,+00.0453,+00.2479,-00.3336,-00.233,-00.023,-09.859,-00.000503,-00.000852,+00.000301*66"
1761939169.6870892,1761939169.686874,4.328416544945937e-06,3.263765701229396e-06,1.2740903539558606e-06,-0.028,-0.195,9.903,2.4690000000000002e-05,4.62e-06,3.325e-05,"$VNYMR,-077.692,-001.308,+000.152,+00.0462,+00.2469,-00.3325,-00.195,-00.028,-09.903,+00.000187,+00.000248,-00.000073*67"
1761939169.7120838,1761939169.711866,-2.759365547403035e-05,-2.4870941840919197e-05,6.876597252857658e-06,-0.027,-0.195,9.917,2.4590000000000003e-05,4.62e-06,3.336e-05,"$VNYMR,-077.692,-001.306,+000.151,+00.0462,+00.2459,-00.3336,-00.195,-00.027,-09.917,-00.001425,-00.001581,-00.000394*64"
1761939169.737012,1761939169.736838,-6.8416906678177716e-06,1.478293876439197e-05,-1.0838494654884787e-05,-0.02,-0.194,9.876,2.498e-05,4.53e-06,3.337e-05,"$VNYMR,-077.691,-001.304,+000.152,+00.0453,+00.2498,-00.3337,-00.194,-00.020,-09.876,+00.000847,-00.000392,+00.000621*6F"
1761939169.7620187,1761939169.7617998,-1.6249015336067207e-05,-2.4137903555081574e-05,-2.5621433419276757e-05,-0.039,-0.211,9.917,2.449e-05,4.52e-06,3.336e-05,"$VNYMR,-077.690,-001.304,+000.151,+00.0452,+00.2449,-00.3336,-00.211,-00.039,-09.917,-00.001383,-00.000931,+00.001468*68"
1761939169.786899,1761939169.7867117,-8.604473212332044e-06,-1.5533430342749532e-05,9.023352232810683e-06,-0.051,-0.236,9.862,2.43e-05,4.420000000000001e-06,3.347e-05,"$VNYMR,-077.691,-001.306,+000.151,+00.0442,+00.2430,-00.3347,-00.236,-00.051,-09.862,-00.000890,-00.000493,-00.000517*69"
1761939169.8119545,1761939169.8118074,-9.302604913129778e-06,6.283185307179586e-07,-5.7072266540214576e-06,-0.034,-0.206,9.859,2.557e-05,4.440000000000001e-06,3.371e-05,"$VNYMR,-077.692,-001.309,+000.151,+00.0444,+00.2557,-00.3371,-00.206,-00.034,-09.859,+00.000036,-00.000533,+00.000327*64"
1761939169.8370514,1761939169.8368707,-1.5289084247470327e-05,2.949606435870417e-05,5.061454830783556e-07,-0.026,-0.243,9.919,2.449e-05,4.81e-06,3.3350000000000004e-05,"$VNYMR,-077.692,-001.310,+000.151,+00.0481,+00.2449,-00.3335,-00.243,-00.026,-09.919,+00.001690,-00.000876,-00.000029*60"
1761939169.8620865,1761939169.8619,-1.6039575825827887e-05,-1.3526301702956054e-05,7.504915783575617e-07,0.003,-0.203,9.877,2.488e-05,4.72e-06,3.325e-05,"$VNYMR,-077.692,-001.309,+000.151,+00.0472,+00.2488,-00.3325,-00.203,+00.003,-09.877,-00.000775,-00.000919,-00.000043*6D"
1761939169.8871992,1761939169.8869343,-1.4364059743913332e-05,1.6475908138826472e-05,1.270599695451872e-05,-0.009,-0.226,9.888,2.4390000000000002e-05,4.52e-06,3.402e-05,"$VNYMR,-077.692,-001.309,+000.150,+00.0452,+00.2439,-00.3402,-00.226,-00.009,-09.888,+00.000944,-00.000823,-00.000728*65"
1761939169.9129558,1761939169.912052,1.9826940302655586e-05,-8.53466004225227e-06,-1.5062191444711064e-05,-0.019,-0.223,9.924,2.576e-05,4.74e-06,3.3150000000000006e-05,"$VNYMR,-077.692,-001.308,+000.149,+00.0474,+00.2576,-00.3315,-00.223,-00.019,-09.924,-00.000489,+00.001136,+00.000863*66"
1761939169.9376926,1761939169.9369812,-9.16297857297023e-06,2.2060961745208326e-05,1.0471975511965978e-06,-0.022,-0.236,9.928,2.527e-05,4.53e-06,3.359e-05,"$VNYMR,-077.693,-001.310,+000.150,+00.0453,+00.2527,-00.3359,-00.236,-00.022,-09.928,+00.001264,-00.000525,-00.000060*61"
1761939169.962557,1761939169.961996,2.7454029133870804e-05,-1.4590952546672596e-05,-1.996656664281513e-05,-0.043,-0.229,9.852,2.4590000000000003e-05,4.43e-06,3.3260000000000003e-05,"$VNYMR,-077.693,-001.309,+000.150,+00.0443,+00.2459,-00.3326,-00.229,-00.043,-09.852,-00.000836,+00.001573,+00.001144*63"
1761939169.988068,1761939169.9872513,-3.6320301734002e-05,2.3719024534602937e-05,-1.53588974175501e-05,-0.032,-0.234,9.882,2.488e-05,4.72e-06,3.347e-05,"$VNYMR,-077.692,-001.310,+000.151,+00.0472,+00.2488,-00.3347,-00.234,-00.032,-09.882,+00.001359,-00.002081,+00.000880*6D"
1761939170.012486,1761939170.0119548,2.1415189921970424e-05,1.8500490071139893e-06,-2.007128639793479e-06,-0.015,-0.223,9.894,2.449e-05,4.72e-06,3.346e-05,"$VNYMR,-077.691,-001.310,+000.151,+00.0472,+00.2449,-00.3346,-00.223,-00.015,-09.894,+00.000106,+00.001227,+00.000115*61"
1761939170.037932,1761939170.0369883,1.989675347273536e-06,-9.250245035569947e-07,-1.2740903539558606e-06,-0.039,-0.254,9.898,2.449e-05,4.52e-06,3.336e-05,"$VNYMR,-077.692,-001.310,+000.150,+00.0452,+00.2449,-00.3336,-00.254,-00.039,-09.898,-00.000053,+00.000114,+00.000073*60"
1761939170.0633767,1761939170.0623093,2.4958208303518915e-05,2.1345376751890647e-05,5.410520681182422e-07,-0.013,-0.224,9.89,2.537e-05,4.6300000000000006e-06,3.3150000000000006e-05,"$VNYMR,-077.692,-001.310,+000.150,+00.0463,+00.2537,-00.3315,-00.224,-00.013,-09.890,+00.001223,+00.001430,-00.000031*6C"
1761939170.0872986,1761939170.0869815,-1.4608405839192537e-05,-5.3232542185827045e-06,-3.141592653589793e-07,-0.017,-0.225,9.911,2.449e-05,4.72e-06,3.324e-05,"$VNYMR,-077.692,-001.310,+000.151,+00.0472,+00.2449,-00.3324,-00.225,-00.017,-09.911,-00.000305,-00.000837,+00.000018*69"
1761939170.1123984,1761939170.1119375,-1.0471975511965977e-07,-5.061454830783556e-06,-1.5725416560468908e-05,-0.014,-0.227,9.916,2.478e-05,4.8200000000000004e-06,3.313e-05,"$VNYMR,-077.692,-001.308,+000.151,+00.0482,+00.2478,-00.3313,-00.227,-00.014,-09.916,-00.000290,-00.000006,+00.000901*69"
1761939170.137087,1761939170.1368418,7.853981633974483e-07,-2.621484536495483e-05,9.756390518648302e-06,0.015,-0.21,9.857,2.5080000000000004e-05,4.440000000000001e-06,3.304e-05,"$VNYMR,-077.691,-001.307,+000.151,+00.0444,+00.2508,-00.3304,-00.210,+00.015,-09.857,-00.001502,+00.000045,-00.000559*63"
1761939170.1620533,1761939170.1618724,-2.879793265790644e-06,1.7645278737662673e-05,-1.3229595730117018e-05,0.005,-0.249,9.893,2.478e-05,4.62e-06,3.38e-05,"$VNYMR,-077.691,-001.307,+000.150,+00.0462,+00.2478,-00.3380,-00.249,+00.005,-09.893,+00.001011,-00.000165,+00.000758*68"
1761939170.187,1761939170.186847,-3.822271061867582e-06,-6.405358354819189e-06,1.1449359893082802e-05,-0.037,-0.258,9.872,2.4690000000000002e-05,4.8200000000000004e-06,3.357e-05,"$VNYMR,-077.690,-001.308,+000.150,+00.0482,+00.2469,-00.3357,-00.258,-00.037,-09.872,-00.000367,-00.000219,-00.000656*6E"
1761939170.212059,1761939170.2118757,-3.4557519189487725e-06,8.115781021773633e-06,-1.8465583486100006e-05,-0.033,-0.242,9.913,2.4590000000000003e-05,4.52e-06,3.358e-05,"$VNYMR,-077.690,-001.310,+000.151,+00.0452,+00.2459,-00.3358,-00.242,-00.033,-09.913,+00.000465,-00.000198,+00.001058*68"
1761939170.2371073,1761939170.2369208,-7.1733032256966945e-06,9.424777960769379e-07,2.303834612632515e-06,-0.026,-0.198,9.86,2.44e-05,4.72e-06,3.313e-05,"$VNYMR,-077.692,-001.311,+000.151,+00.0472,+00.2440,-00.3313,-00.198,-00.026,-09.860,+00.000054,-00.000411,-00.000132*63"
1761939170.2622788,1761939170.2620873,-8.970992355250854e-06,3.717551306747922e-06,5.497787143782138e-06,-0.015,-0.187,9.848,2.4200000000000002e-05,4.420000000000001e-06,3.347e-05,"$VNYMR,-077.692,-001.311,+000.151,+00.0442,+00.2420,-00.3347,-00.187,-00.015,-09.848,+00.000213,-00.000514,-00.000315*61"
1761939170.2875583,1761939170.2871816,1.9146261894377796e-05,2.1991148575128552e-05,2.3230332344044527e-05,-0.037,-0.214,9.933,2.4690000000000002e-05,4.62e-06,3.325e-05,"$VNYMR,-077.693,-001.309,+000.151,+00.0462,+00.2469,-00.3325,-00.214,-00.037,-09.933,+00.001260,+00.001097,-00.001331*6D"
1761939170.312135,1761939170.311954,-2.092649773141201e-05,-9.477137838329208e-06,-4.50294947014537e-06,0.002,-0.228,9.88,2.4690000000000002e-05,4.53e-06,3.325e-05,"$VNYMR,-077.693,-001.308,+000.152,+00.0453,+00.2469,-00.3325,-00.228,+00.002,-09.880,-00.000543,-00.001199,+00.000258*6A"
1761939170.3372698,1761939170.337022,1.0925761117484503e-05,1.8099064343181195e-05,-2.4905848425959086e-05,-0.037,-0.232,9.882,2.4200000000000002e-05,4.81e-06,3.323e-05,"$VNYMR,-077.694,-001.308,+000.151,+00.0481,+00.2420,-00.3323,-00.232,-00.037,-09.882,+00.001037,+00.000626,+00.001427*69"
1761939170.363139,1761939170.3621056,-1.7278759594743862e-06,1.1344640137963142e-05,1.6964600329384882e-05,-0.031,-0.204,9.876,2.44e-05,4.62e-06,3.358e-05,"$VNYMR,-077.695,-001.308,+000.151,+00.0462,+00.2440,-00.3358,-00.204,-00.031,-09.876,+00.000650,-00.000099,-00.000972*6F"
1761939170.3875723,1761939170.387004,1.9111355309337908e-05,1.8570303241219668e-05,-1.1798425743481667e-05,-0.015,-0.217,9.889,2.449e-05,4.72e-06,3.3350000000000004e-05,"$VNYMR,-077.695,-001.309,+000.151,+00.0472,+00.2449,-00.3335,-00.217,-00.015,-09.889,+00.001064,+00.001095,+00.000676*6F"
1761939170.4126387,1761939170.4120448,-7.819075048934597e-06,-1.7453292519943295e-08,-6.8416906678177716e-06,-0.035,-0.224,9.877,2.5080000000000004e-05,4.7300000000000005e-06,3.303e-05,"$VNYMR,-077.697,-001.309,+000.150,+00.0473,+00.2508,-00.3303,-00.224,-00.035,-09.877,-00.000001,-00.000448,+00.000392*67"
1761939170.43799,1761939170.4370332,6.248278722139699e-06,1.0681415022205297e-05,-1.4608405839192537e-05,-0.018,-0.203,9.858,2.44e-05,4.52e-06,3.347e-05,"$VNYMR,-077.697,-001.308,+000.150,+00.0452,+00.2440,-00.3347,-00.203,-00.018,-09.858,+00.000612,+00.000358,+00.000837*69"
1761939170.4640067,1761939170.4635549,-1.223475805648025e-05,-1.5742869852988853e-05,-1.033234917180643e-05,-0.025,-0.209,9.904,2.4690000000000002e-05,4.62e-06,3.347e-05,"$VNYMR,-077.697,-001.306,+000.150,+00.0462,+00.2469,-00.3347,-00.209,-00.025,-09.904,-00.000902,-00.000701,+00.000592*67"
1761939170.4871447,1761939170.4869485,-1.7662732030182617e-05,1.2217304763960308e-07,-2.0629791758572976e-05,-0.015,-0.221,9.913,2.479e-05,4.53e-06,3.358e-05,"$VNYMR,-077.696,-001.307,+000.152,+00.0453,+00.2479,-00.3358,-00.221,-00.015,-09.913,+00.000007,-00.001012,+00.001182*6D"
1761939170.512314,1761939170.5120637,7.120943348136864e-06,2.2322761133007475e-05,3.9968039870670145e-06,-0.036,-0.229,9.92,2.449e-05,4.62e-06,3.325e-05,"$VNYMR,-077.696,-001.307,+000.151,+00.0462,+00.2449,-00.3325,-00.229,-00.036,-09.920,+00.001279,+00.000408,-00.000229*6B"
1761939170.5378966,1761939170.5370958,2.6179938779914943e-06,1.286307658719821e-05,4.50294947014537e-06,-0.024,-0.239,9.852,2.449e-05,4.72e-06,3.291e-05,"$VNYMR,-077.696,-001.307,+000.151,+00.0472,+00.2449,-00.3291,-00.239,-00.024,-09.852,+00.000737,+00.000150,-00.000258*62"
1761939170.5631297,1761939170.5624804,-7.67944870877505e-07,1.8046704465621366e-05,8.080874436733745e-06,-0.003,-0.248,9.897,2.44e-05,4.72e-06,3.302e-05,"$VNYMR,-077.697,-001.307,+000.150,+00.0472,+00.2440,-00.3302,-00.248,-00.003,-09.897,+00.001034,-00.000044,-00.000463*63"
1761939170.587642,1761939170.5870943,-4.366813788489812e-05,-1.5166911199830724e-05,1.4940018397071461e-05,-0.022,-0.24,9.87,2.449e-05,4.52e-06,3.402e-05,"$VNYMR,-077.697,-001.308,+000.150,+00.0452,+00.2449,-00.3402,-00.240,-00.022,-09.870,-00.000869,-00.002502,-00.000856*6A"
1761939170.6129878,1761939170.6121998,3.0072023011862296e-05,1.8675022996339327e-06,-3.0700341542580256e-05,0.004,-0.227,9.865,2.449e-05,4.72e-06,3.2800000000000004e-05,"$VNYMR,-077.696,-001.308,+000.150,+00.0472,+00.2449,-00.3280,-00.227,+00.004,-09.865,+00.000107,+00.001723,+00.001759*66"
1761939170.6376035,1761939170.6370275,1.2217304763960306e-06,-3.839724354387525e-07,9.704030641088471e-06,0.001,-0.249,9.897,2.4590000000000003e-05,4.62e-06,3.314e-05,"$VNYMR,-077.696,-001.308,+000.149,+00.0462,+00.2459,-00.3314,-00.249,+00.001,-09.897,-00.000022,+00.000070,-00.000556*68"
1761939170.662586,1761939170.6620536,-1.567305668290908e-05,1.3526301702956054e-05,-2.600540585471551e-06,-0.008,-0.213,9.897,2.5280000000000005e-05,4.540000000000001e-06,3.293e-05,"$VNYMR,-077.696,-001.308,+000.148,+00.0454,+00.2528,-00.3293,-00.213,-00.008,-09.897,+00.000775,-00.000898,+00.000149*62"
1761939170.6918757,1761939170.6913922,-2.2671826983406343e-05,-8.464846872172499e-06,-1.5952309363228173e-05,-0.007,-0.22,9.904,2.4690000000000002e-05,4.53e-06,3.314e-05,"$VNYMR,-077.698,-001.307,+000.147,+00.0453,+00.2469,-00.3314,-00.220,-00.007,-09.904,-00.000485,-00.001299,+00.000914*65"
1761939170.7125347,1761939170.7120695,2.3788837704682714e-05,1.7243853009703976e-05,-8.185594191853407e-06,-0.015,-0.23,9.802,2.4690000000000002e-05,4.72e-06,3.313e-05,"$VNYMR,-077.697,-001.306,+000.148,+00.0472,+00.2469,-00.3313,-00.230,-00.015,-09.802,+00.000988,+00.001363,+00.000469*66"
1761939170.7372527,1761939170.7369742,6.928957130417488e-06,1.6057029118347832e-06,-2.5307274153917775e-05,-0.038,-0.228,9.911,2.449e-05,4.72e-06,3.3350000000000004e-05,"$VNYMR,-077.696,-001.304,+000.149,+00.0472,+00.2449,-00.3335,-00.228,-00.038,-09.911,+00.000092,+00.000397,+00.001450*64"
1761939170.7622888,1761939170.7620575,4.782202150464463e-06,-1.3491395117916169e-05,-3.560471674068432e-06,-0.013,-0.236,9.871,2.4690000000000002e-05,4.62e-06,3.314e-05,"$VNYMR,-077.696,-001.305,+000.149,+00.0462,+00.2469,-00.3314,-00.236,-00.013,-09.871,-00.000773,+00.000274,+00.000204*60"
1761939170.7872038,1761939170.7870445,-1.153662635568252e-05,1.1798425743481667e-05,-7.853981633974483e-07,0.003,-0.217,9.918,2.4590000000000003e-05,4.53e-06,3.325e-05,"$VNYMR,-077.697,-001.306,+000.148,+00.0453,+00.2459,-00.3325,-00.217,+00.003,-09.918,+00.000676,-00.000661,+00.000045*69"
1761939170.8121543,1761939170.8119977,-2.3753931119642826e-05,-1.0245082709206714e-05,2.0559978588493202e-05,-0.031,-0.225,9.855,2.4590000000000003e-05,4.62e-06,3.336e-05,"$VNYMR,-077.698,-001.306,+000.147,+00.0462,+00.2459,-00.3336,-00.225,-00.031,-09.855,-00.000587,-00.001361,-00.001178*60"
1761939170.837205,1761939170.8370388,4.25685804561417e-05,3.473205211468716e-05,-1.816887751326097e-05,0.003,-0.224,9.922,2.586e-05,4.74e-06,3.3260000000000003e-05,"$VNYMR,-077.696,-001.305,+000.146,+00.0474,+00.2586,-00.3326,-00.224,+00.003,-09.922,+00.001990,+00.002439,+00.001041*61"
1761939170.8621979,1761939170.8620255,6.632251157578453e-06,-1.2845623294678265e-05,-5.689773361501514e-06,-0.042,-0.228,9.891,2.498e-05,4.7300000000000005e-06,3.325e-05,"$VNYMR,-077.696,-001.304,+000.146,+00.0473,+00.2498,-00.3325,-00.228,-00.042,-09.891,-00.000736,+00.000380,+00.000326*6D"
1761939170.8875716,1761939170.8872604,3.4557519189487725e-06,1.736602605734358e-05,-5.253441048502932e-06,-0.018,-0.218,9.889,2.4590000000000003e-05,4.53e-06,3.303e-05,"$VNYMR,-077.696,-001.304,+000.147,+00.0453,+00.2459,-00.3303,-00.218,-00.018,-09.889,+00.000995,+00.000198,+00.000301*6D"
1761939170.9123695,1761939170.912154,-1.684242728174528e-05,-2.3561944901923448e-06,-1.5533430342749533e-06,-0.028,-0.214,9.905,2.5180000000000003e-05,4.53e-06,3.3260000000000003e-05,"$VNYMR,-077.698,-001.304,+000.148,+00.0453,+00.2518,-00.3326,-00.214,-00.028,-09.905,-00.000135,-00.000965,+00.000089*6E"
1761939170.9385684,1761939170.937815,2.3788837704682714e-05,1.3177235852557188e-05,-1.2461650859239513e-05,-0.021,-0.217,9.893,2.479e-05,4.7300000000000005e-06,3.2579999999999996e-05,"$VNYMR,-077.699,-001.304,+000.147,+00.0473,+00.2479,-00.3258,-00.217,-00.021,-09.893,+00.000755,+00.001363,+00.000714*66"
1761939170.9627078,1761939170.9621031,1.1344640137963142e-05,7.051130178057092e-06,2.792526803190927e-07,-0.026,-0.233,9.922,2.479e-05,4.72e-06,3.2800000000000004e-05,"$VNYMR,-077.699,-001.303,+000.146,+00.0472,+00.2479,-00.3280,-00.233,-00.026,-09.922,+00.000404,+00.000650,-00.000016*6E"
1761939170.9879882,1761939170.9872692,1.5812683023068626e-05,-7.9412480965742e-06,-1.4049900478554354e-05,-0.006,-0.22,9.843,2.4590000000000003e-05,4.72e-06,3.357e-05,"$VNYMR,-077.700,-001.304,+000.146,+00.0472,+00.2459,-00.3357,-00.220,-00.006,-09.843,-00.000455,+00.000906,+00.000805*65"
1761939171.012369,1761939171.0120497,-8.726646259971648e-06,1.3404128655316451e-05,-7.539822368615503e-06,-0.036,-0.216,9.939,2.5080000000000004e-05,4.53e-06,3.3150000000000006e-05,"$VNYMR,-077.700,-001.302,+000.146,+00.0453,+00.2508,-00.3315,-00.216,-00.036,-09.939,+00.000768,-00.000500,+00.000432*66"
1761939171.037341,1761939171.037027,1.1135200627723823e-05,4.34586983746588e-06,4.1364303272265605e-06,-0.034,-0.194,9.877,2.44e-05,4.62e-06,3.291e-05,"$VNYMR,-077.700,-001.302,+000.147,+00.0462,+00.2440,-00.3291,-00.194,-00.034,-09.877,+00.000249,+00.000638,-00.000237*68"
1761939171.0623443,1761939171.062026,6.213372137099813e-06,-2.3911010752322315e-06,2.7785641691749727e-05,-0.014,-0.218,9.919,2.449e-05,4.52e-06,3.336e-05,"$VNYMR,-077.701,-001.302,+000.146,+00.0452,+00.2449,-00.3336,-00.218,-00.014,-09.919,-00.000137,+00.000356,-00.001592*6A"
1761939171.087233,1761939171.0870535,5.724679946541401e-06,-2.3719024534602937e-05,1.0297442586766545e-05,-0.045,-0.218,9.868,2.479e-05,4.6300000000000006e-06,3.325e-05,"$VNYMR,-077.702,-001.302,+000.147,+00.0463,+00.2479,-00.3325,-00.218,-00.045,-09.868,-00.001359,+00.000328,-00.000590*69"
1761939171.1122558,1761939171.1120458,2.2549653935766736e-05,1.762782544514273e-05,-1.4730578886832141e-05,-0.029,-0.214,9.881,2.488e-05,4.8200000000000004e-06,3.313e-05,"$VNYMR,-077.703,-001.302,+000.146,+00.0482,+00.2488,-00.3313,-00.214,-00.029,-09.881,+00.001010,+00.001292,+00.000844*67"
1761939171.1373289,1761939171.1371512,-2.2549653935766736e-05,-9.389871375729492e-06,2.694788365079245e-05,-0.04,-0.239,9.894,2.4690000000000002e-05,4.72e-06,3.302e-05,"$VNYMR,-077.702,-001.302,+000.146,+00.0472,+00.2469,-00.3302,-00.239,-00.040,-09.894,-00.000538,-00.001292,-00.001544*66"
1761939171.16234,1761939171.1621275,3.583160954344359e-05,7.539822368615503e-06,-5.637413483941684e-06,-0.004,-0.233,9.874,2.4690000000000002e-05,4.8200000000000004e-06,3.324e-05,"$VNYMR,-077.700,-001.303,+000.147,+00.0482,+00.2469,-00.3324,-00.233,-00.004,-09.874,+00.000432,+00.002053,+00.000323*6C"
1761939171.18743,1761939171.187213,-4.677482395344804e-06,-2.113593724165133e-05,6.597344572538566e-06,-0.018,-0.236,9.917,2.44e-05,4.52e-06,3.358e-05,"$VNYMR,-077.701,-001.305,+000.145,+00.0452,+00.2440,-00.3358,-00.236,-00.018,-09.917,-00.001211,-00.000268,-00.000378*6E"
1761939171.2126133,1761939171.2123811,2.542944720155738e-05,1.7784905077822216e-05,8.080874436733745e-06,-0.011,-0.251,9.851,2.449e-05,4.72e-06,3.291e-05,"$VNYMR,-077.701,-001.306,+000.146,+00.0472,+00.2449,-00.3291,-00.251,-00.011,-09.851,+00.001019,+00.001457,-00.000463*66"
1761939171.238166,1761939171.2372284,1.153662635568252e-05,-2.6040312439755398e-05,-1.3788101090755204e-06,-0.014,-0.221,9.822,2.537e-05,4.6300000000000006e-06,3.3150000000000006e-05,"$VNYMR,-077.702,-001.306,+000.145,+00.0463,+00.2537,-00.3315,-00.221,-00.014,-09.822,-00.001492,+00.000661,+00.000079*6B"
1761939171.2625687,1761939171.262303,-3.860668305411457e-05,5.6775560567375536e-05,-5.288347633542819e-06,-0.016,-0.23,10.022,2.44e-05,4.62e-06,3.3350000000000004e-05,"$VNYMR,-077.703,-001.306,+000.146,+00.0462,+00.2440,-00.3335,-00.230,-00.016,-10.022,+00.003253,-00.002212,+00.000303*6C"
1761939171.288602,1761939171.2875772,7.061602153569058e-05,-8.913396489935042e-05,-8.744099552491592e-06,0.011,-0.21,9.764,2.4390000000000002e-05,4.81e-06,3.3350000000000004e-05,"$VNYMR,-077.701,-001.304,+000.143,+00.0481,+00.2439,-00.3335,-00.210,+00.011,-09.764,-00.005107,+00.004046,+00.000501*61"
1761939171.3161209,1761939171.3154745,-3.665191429188092e-05,9.595820227464825e-05,1.5446163880149818e-05,-0.012,-0.215,9.978,2.5180000000000003e-05,4.6300000000000006e-06,3.325e-05,"$VNYMR,-077.702,-001.305,+000.147,+00.0463,+00.2518,-00.3325,-00.215,-00.012,-09.978,+00.005498,-00.002100,-00.000885*6A"
1761939171.3374186,1761939171.3371458,5.546656362837979e-05,-6.269222673163632e-05,-1.3089969389957471e-06,-0.02,-0.232,9.883,2.449e-05,4.9100000000000004e-06,3.29e-05,"$VNYMR,-077.701,-001.303,+000.143,+00.0491,+00.2449,-00.3290,-00.232,-00.020,-09.883,-00.003592,+00.003178,+00.000075*6F"
1761939171.3623168,1761939171.3621414,1.610938899590766e-05,4.260348704118159e-05,-5.724679946541401e-06,-0.028,-0.273,9.878,2.45e-05,4.43e-06,3.281e-05,"$VNYMR,-077.702,-001.304,+000.149,+00.0443,+00.2450,-00.3281,-00.273,-00.028,-09.878,+00.002441,+00.000923,+00.000328*69"
1761939171.38733,1761939171.387133,1.673770752662562e-05,2.7401669256310974e-06,-1.361356816555577e-05,-0.002,-0.247,9.924,2.498e-05,4.7300000000000005e-06,3.314e-05,"$VNYMR,-077.701,-001.303,+000.143,+00.0473,+00.2498,-00.3314,-00.247,-00.002,-09.924,+00.000157,+00.000959,+00.000780*61"
1761939171.4123814,1761939171.412209,5.934119456780721e-06,-2.0210912738094335e-05,2.1450096507010313e-05,-0.048,-0.216,9.852,2.4690000000000002e-05,4.72e-06,3.2800000000000004e-05,"$VNYMR,-077.701,-001.305,+000.148,+00.0472,+00.2469,-00.3280,-00.216,-00.048,-09.852,-00.001158,+00.000340,-00.001229*6E"
1761939171.4374108,1761939171.4372103,6.544984694978736e-06,4.769984845700503e-05,1.8762289458939044e-05,-0.011,-0.222,9.939,2.449e-05,4.72e-06,3.2800000000000004e-05,"$VNYMR,-077.700,-001.303,+000.143,+00.0472,+00.2449,-00.3280,-00.222,-00.011,-09.939,+00.002733,+00.000375,-00.001075*64"
1761939171.462426,1761939171.4622219,2.0158552860534506e-05,-4.8956485518440946e-05,-1.65282680163863e-05,-0.053,-0.214,9.829,2.449e-05,4.81e-06,3.3350000000000004e-05,"$VNYMR,-077.698,-001.304,+000.146,+00.0481,+00.2449,-00.3335,-00.214,-00.053,-09.829,-00.002805,+00.001155,+00.000947*64"
1761939171.4879684,1761939171.4876697,-1.1397000015522973e-05,9.182177194742168e-05,-8.918632477691023e-06,-0.048,-0.202,9.955,2.44e-05,4.52e-06,3.292e-05,"$VNYMR,-077.696,-001.304,+000.145,+00.0452,+00.2440,-00.3292,-00.202,-00.048,-09.955,+00.005261,-00.000653,+00.000511*65"
1761939171.512544,1761939171.5123081,-8.918632477691023e-06,-7.895869536022347e-05,-1.1903145498601327e-05,-0.046,-0.218,9.817,2.479e-05,4.53e-06,3.292e-05,"$VNYMR,-077.698,-001.305,+000.145,+00.0453,+00.2479,-00.3292,-00.218,-00.046,-09.817,-00.004524,-00.000511,+00.000682*6E"
1761939171.5386186,1761939171.5376878,-1.1344640137963142e-05,6.393141050055229e-05,2.452187599052033e-05,-0.011,-0.224,9.903,2.488e-05,4.6300000000000006e-06,3.281e-05,"$VNYMR,-077.699,-001.306,+000.147,+00.0463,+00.2488,-00.3281,-00.224,-00.011,-09.903,+00.003663,-00.000650,-00.001405*65"
1761939171.5627234,1761939171.562463,2.8274333882308137e-05,-7.147123286916779e-05,2.7052603405912107e-06,-0.04,-0.294,9.856,2.4690000000000002e-05,4.6300000000000006e-06,3.281e-05,"$VNYMR,-077.698,-001.305,+000.144,+00.0463,+00.2469,-00.3281,-00.294,-00.040,-09.856,-00.004095,+00.001620,-00.000155*6A"
1761939171.5873568,1761939171.5871923,4.188790204786391e-06,2.712241657599188e-05,-1.567305668290908e-05,0.009,-0.263,9.889,2.4590000000000003e-05,4.53e-06,3.303e-05,"$VNYMR,-077.698,-001.307,+000.147,+00.0453,+00.2459,-00.3303,-00.263,+00.009,-09.889,+00.001554,+00.000240,+00.000898*67"
1761939171.6124332,1761939171.6122413,-3.822271061867582e-06,-3.263765701229396e-06,1.4468779499032992e-05,-0.031,-0.197,9.894,2.449e-05,4.62e-06,3.314e-05,"$VNYMR,-077.697,-001.306,+000.144,+00.0462,+00.2449,-00.3314,-00.197,-00.031,-09.894,-00.000187,-00.000219,-00.000829*6D"
1761939171.6374004,1761939171.637199,1.708677337702449e-05,-2.3177972466484697e-05,5.218534463463045e-06,-0.045,-0.159,9.877,2.4590000000000003e-05,4.43e-06,3.314e-05,"$VNYMR,-077.697,-001.306,+000.146,+00.0443,+00.2459,-00.3314,-00.159,-00.045,-09.877,-00.001328,+00.000979,-00.000299*6D"
1761939171.662399,1761939171.6622238,2.932153143350474e-05,2.7576202181510406e-05,3.001966313430247e-06,-0.061,-0.151,9.923,2.449e-05,4.72e-06,3.2579999999999996e-05,"$VNYMR,-077.698,-001.303,+000.144,+00.0472,+00.2449,-00.3258,-00.151,-00.061,-09.923,+00.001580,+00.001680,-00.000172*6D"
1761939171.6875687,1761939171.68734,-3.117158044061873e-05,-2.696533694331239e-05,2.2968532956245374e-05,-0.071,-0.212,9.843,2.44e-05,4.72e-06,3.324e-05,"$VNYMR,-077.698,-001.303,+000.145,+00.0472,+00.2440,-00.3324,-00.212,-00.071,-09.843,-00.001545,-00.001786,-00.001316*62"
1761939171.7125294,1761939171.7122786,1.413716694115407e-06,1.7976891295541595e-05,-1.9390607989657e-05,-0.037,-0.246,9.939,2.4590000000000003e-05,4.62e-06,3.314e-05,"$VNYMR,-077.698,-001.304,+000.145,+00.0462,+00.2459,-00.3314,-00.246,-00.037,-09.939,+00.001030,+00.000081,+00.001111*65"
1761939171.7382433,1761939171.7373695,-1.4241886696273729e-05,-1.9669860669976092e-05,-2.5761059759436307e-05,0.013,-0.301,9.88,2.449e-05,4.52e-06,3.325e-05,"$VNYMR,-077.696,-001.306,+000.145,+00.0452,+00.2449,-00.3325,-00.301,+00.013,-09.880,-00.001127,-00.000816,+00.001476*6D"
1761939171.763037,1761939171.762429,4.81710873550435e-06,1.1327186845443197e-05,-8.272860654453121e-06,-0.006,-0.276,9.931,2.449e-05,4.62e-06,3.2800000000000004e-05,"$VNYMR,-077.697,-001.307,+000.144,+00.0462,+00.2449,-00.3280,-00.276,-00.006,-09.931,+00.000649,+00.000276,+00.000474*68"
1761939171.788591,1761939171.7875762,-5.5152404363020815e-06,-9.564404300928926e-06,8.133234314293576e-06,-0.036,-0.252,9.891,2.44e-05,4.62e-06,3.358e-05,"$VNYMR,-077.697,-001.307,+000.143,+00.0462,+00.2440,-00.3358,-00.252,-00.036,-09.891,-00.000548,-00.000316,-00.000466*6C"
1761939171.8133075,1761939171.8125212,2.7471482426390748e-05,2.567379329683659e-05,-7.67944870877505e-07,-0.04,-0.221,9.846,2.44e-05,4.72e-06,3.313e-05,"$VNYMR,-077.697,-001.306,+000.145,+00.0472,+00.2440,-00.3313,-00.221,-00.040,-09.846,+00.001471,+00.001574,+00.000044*61"
1761939171.8383896,1761939171.837553,-2.3736477827122885e-05,-3.07177948351002e-06,-2.879793265790644e-06,-0.045,-0.232,9.89,2.4390000000000002e-05,5.01e-06,3.279e-05,"$VNYMR,-077.695,-001.306,+000.146,+00.0501,+00.2439,-00.3279,-00.232,-00.045,-09.890,-00.000176,-00.001360,+00.000165*68"
1761939171.8641305,1761939171.8631058,1.584758960810851e-05,2.6389378290154265e-05,-1.3264502315156905e-06,-0.021,-0.257,9.869,2.4590000000000003e-05,4.72e-06,3.302e-05,"$VNYMR,-077.696,-001.305,+000.147,+00.0472,+00.2459,-00.3302,-00.257,-00.021,-09.869,+00.001512,+00.000908,+00.000076*61"
1761939171.8893518,1761939171.888647,-4.537856055185257e-06,-3.7524578917878083e-06,-2.408554367752175e-06,-0.019,-0.207,9.899,2.4200000000000002e-05,4.81e-06,3.3010000000000004e-05,"$VNYMR,-077.695,-001.305,+000.146,+00.0481,+00.2420,-00.3301,-00.207,-00.019,-09.899,-00.000215,-00.000260,+00.000138*6C"
1761939171.917689,1761939171.9170792,8.726646259971648e-07,1.806415775814131e-05,-1.1571532940722404e-05,-0.044,-0.216,9.866,2.4590000000000003e-05,4.62e-06,3.303e-05,"$VNYMR,-077.696,-001.304,+000.147,+00.0462,+00.2459,-00.3303,-00.216,-00.044,-09.866,+00.001035,+00.000050,+00.000663*6F"
1761939171.9375288,1761939171.937304,1.4852751934471744e-05,-1.6772614111665506e-05,1.0716321607245183e-05,-0.021,-0.205,9.912,2.4690000000000002e-05,4.8200000000000004e-06,3.302e-05,"$VNYMR,-077.696,-001.302,+000.148,+00.0482,+00.2469,-00.3302,-00.205,-00.021,-09.912,-00.000961,+00.000851,-00.000614*69"
1761939171.9624386,1761939171.962273,2.897246558310587e-06,-1.0786134777324956e-05,-1.6126842288427605e-05,-0.02,-0.245,9.832,2.479e-05,4.6300000000000006e-06,3.292e-05,"$VNYMR,-077.695,-001.302,+000.148,+00.0463,+00.2479,-00.3292,-00.245,-00.020,-09.832,-00.000618,+00.000166,+00.000924*6C"
1761939171.9875076,1761939171.9873333,9.721483933608415e-06,-3.7699111843077517e-06,3.874630939427412e-06,-0.014,-0.279,9.879,2.4390000000000002e-05,4.72e-06,3.3350000000000004e-05,"$VNYMR,-077.696,-001.304,+000.147,+00.0472,+00.2439,-00.3335,-00.279,-00.014,-09.879,-00.000216,+00.000557,-00.000222*6E"
1761939172.0124996,1761939172.0123165,-6.0911990894602106e-06,-2.1310470166850766e-05,9.68657734856853e-06,0.002,-0.262,9.85,2.4690000000000002e-05,4.62e-06,3.347e-05,"$VNYMR,-077.695,-001.307,+000.145,+00.0462,+00.2469,-00.3347,-00.262,+00.002,-09.850,-00.001221,-00.000349,-00.000555*60"
1761939172.0375133,1761939172.0373333,5.138249317871306e-05,2.1729349187329403e-05,-3.926990816987241e-06,-0.008,-0.226,9.892,2.44e-05,4.72e-06,3.291e-05,"$VNYMR,-077.695,-001.306,+000.145,+00.0472,+00.2440,-00.3291,-00.226,-00.008,-09.892,+00.001245,+00.002944,+00.000225*62"
1761939172.0626554,1761939172.0623963,-2.8029987787028932e-05,-2.4068090385001804e-05,4.81710873550435e-06,-0.039,-0.176,9.883,2.4590000000000003e-05,4.72e-06,3.269000000000001e-05,"$VNYMR,-077.695,-001.306,+000.145,+00.0472,+00.2459,-00.3269,-00.176,-00.039,-09.883,-00.001379,-00.001606,-00.000276*6D"
1761939172.0888484,1761939172.0878372,4.2516220578581866e-05,2.808234766458876e-05,-1.043706892692609e-05,-0.055,-0.172,9.869,2.449e-05,4.62e-06,3.291e-05,"$VNYMR,-077.697,-001.304,+000.146,+00.0462,+00.2449,-00.3291,-00.172,-00.055,-09.869,+00.001609,+00.002436,+00.000598*62"
1761939172.1133797,1761939172.112586,-1.2444197566719569e-05,-2.2881266493645663e-05,-2.0943951023931955e-07,-0.041,-0.207,9.91,2.449e-05,4.72e-06,3.2579999999999996e-05,"$VNYMR,-077.698,-001.301,+000.147,+00.0472,+00.2449,-00.3258,-00.207,-00.041,-09.910,-00.001311,-00.000713,+00.000012*6B"
1761939172.1386187,1761939172.1378214,2.4434609527920616e-07,2.5272367568877893e-05,-1.823869068334074e-05,-0.004,-0.224,9.825,2.449e-05,4.62e-06,3.314e-05,"$VNYMR,-077.696,-001.301,+000.147,+00.0462,+00.2449,-00.3314,-00.224,-00.004,-09.825,+00.001448,+00.000014,+00.001045*62"
1761939172.1634164,1761939172.1626124,-2.2375121010567305e-05,-1.2339477811599909e-05,-2.879793265790644e-06,-0.0,-0.244,9.915,2.41e-05,4.62e-06,3.313e-05,"$VNYMR,-077.695,-001.302,+000.146,+00.0462,+00.2410,-00.3313,-00.244,-00.000,-09.915,-00.000707,-00.001282,+00.000165*6F"
1761939172.1878092,1761939172.1875439,-1.972222054753592e-06,1.7453292519943297e-07,1.762782544514273e-06,-0.036,-0.252,9.829,2.527e-05,4.7300000000000005e-06,3.292e-05,"$VNYMR,-077.694,-001.306,+000.146,+00.0473,+00.2527,-00.3292,-00.252,-00.036,-09.829,+00.000010,-00.000113,-00.000101*62"
1761939172.2134025,1761939172.2126923,5.235987755982989e-06,-1.7941984710501707e-05,7.208209810736581e-06,-0.038,-0.23,9.897,2.45e-05,4.43e-06,3.281e-05,"$VNYMR,-077.694,-001.307,+000.145,+00.0443,+00.2450,-00.3281,-00.230,-00.038,-09.897,-00.001028,+00.000300,-00.000413*63"
1761939172.2376451,1761939172.237421,1.5009831567151234e-06,-1.6755160819145564e-06,1.780235837034216e-06,-0.049,-0.193,9.865,2.44e-05,4.72e-06,3.2800000000000004e-05,"$VNYMR,-077.694,-001.307,+000.145,+00.0472,+00.2440,-00.3280,-00.193,-00.049,-09.865,-00.000096,+00.000086,-00.000102*6C"
1761939172.262588,1761939172.2623713,1.4608405839192537e-05,-1.2583823906879116e-05,-5.899212871740834e-06,-0.036,-0.2,9.879,2.43e-05,4.62e-06,3.302e-05,"$VNYMR,-077.694,-001.305,+000.145,+00.0462,+00.2430,-00.3302,-00.200,-00.036,-09.879,-00.000721,+00.000837,+00.000338*6B"
1761939172.2875636,1761939172.2873845,6.771877497737999e-06,-2.2584560520806625e-05,6.335545184739416e-06,-0.045,-0.22,9.835,2.5080000000000004e-05,4.6300000000000006e-06,3.2590000000000005e-05,"$VNYMR,-077.695,-001.302,+000.147,+00.0463,+00.2508,-00.3259,-00.220,-00.045,-09.835,-00.001294,+00.000388,-00.000363*68"
1761939172.3125486,1761939172.312375,3.05956217874606e-05,2.8902652413026095e-05,1.947787445225672e-05,-0.024,-0.229,9.879,2.43e-05,4.8200000000000004e-06,3.257e-05,"$VNYMR,-077.696,-001.302,+000.146,+00.0482,+00.2430,-00.3257,-00.229,-00.024,-09.879,+00.001656,+00.001753,-00.001116*69"
1761939172.3377094,1761939172.3374798,-5.0195669287356916e-05,-1.583013631558857e-05,5.550147021341967e-06,-0.039,-0.229,9.881,2.43e-05,4.9100000000000004e-06,3.279e-05,"$VNYMR,-077.695,-001.302,+000.146,+00.0491,+00.2430,-00.3279,-00.229,-00.039,-09.881,-00.000907,-00.002876,-00.000318*63"
1761939172.363466,1761939172.3625798,2.6337018412594432e-05,8.290313946973065e-06,-9.477137838329208e-06,-0.024,-0.262,9.901,2.4590000000000003e-05,4.62e-06,3.292e-05,"$VNYMR,-077.693,-001.303,+000.147,+00.0462,+00.2459,-00.3292,-00.262,-00.024,-09.901,+00.000475,+00.001509,+00.000543*69"
1761939172.3882153,1761939172.3875234,-7.138396640656809e-06,1.0873401239924672e-05,-1.3683381335635543e-05,-0.03,-0.245,9.928,2.4390000000000002e-05,4.72e-06,3.3350000000000004e-05,"$VNYMR,-077.692,-001.304,+000.147,+00.0472,+00.2439,-00.3335,-00.245,-00.030,-09.928,+00.000623,-00.000409,+00.000784*61"
1761939172.4134424,1761939172.41261,2.7733281814189894e-05,1.3840460968315032e-05,3.3859387488689995e-06,-0.007,-0.244,9.883,2.498e-05,4.6300000000000006e-06,3.314e-05,"$VNYMR,-077.692,-001.305,+000.146,+00.0463,+00.2498,-00.3314,-00.244,-00.007,-09.883,+00.000793,+00.001589,-00.000194*69"
1761939172.438486,1761939172.4376307,-3.4278266509168635e-05,3.4557519189487725e-06,-8.290313946973065e-06,-0.03,-0.236,9.906,2.4590000000000003e-05,4.53e-06,3.292e-05,"$VNYMR,-077.691,-001.307,+000.144,+00.0453,+00.2459,-00.3292,-00.236,-00.030,-09.906,+00.000198,-00.001964,+00.000475*6E"
1761939172.4640474,1761939172.462669,1.5987215948268058e-05,-1.4451326206513047e-05,-3.141592653589793e-07,-0.047,-0.212,9.886,2.5169999999999998e-05,4.92e-06,3.2800000000000004e-05,"$VNYMR,-077.691,-001.307,+000.144,+00.0492,+00.2517,-00.3280,-00.212,-00.047,-09.886,-00.000828,+00.000916,+00.000018*6D"
1761939172.4885862,1761939172.4876509,-7.138396640656809e-06,3.4208453339088858e-06,-4.328416544945937e-06,-0.033,-0.191,9.938,2.498e-05,4.8200000000000004e-06,3.2800000000000004e-05,"$VNYMR,-077.690,-001.304,+000.145,+00.0482,+00.2498,-00.3280,-00.191,-00.033,-09.938,+00.000196,-00.000409,+00.000248*6E"
1761939172.5128014,1761939172.5124843,1.2653637076958888e-05,-2.3701571242082996e-05,2.0228366030614283e-05,-0.028,-0.209,9.843,2.449e-05,4.72e-06,3.2579999999999996e-05,"$VNYMR,-077.690,-001.303,+000.145,+00.0472,+00.2449,-00.3258,-00.209,-00.028,-09.843,-00.001358,+00.000725,-00.001159*62"
1761939172.5380812,1761939172.5374608,1.0978120995044334e-05,-7.155849933176751e-07,2.4434609527920616e-07,-0.024,-0.226,9.947,2.4590000000000003e-05,4.72e-06,3.269000000000001e-05,"$VNYMR,-077.689,-001.301,+000.146,+00.0472,+00.2459,-00.3269,-00.226,-00.024,-09.947,-00.000041,+00.000629,-00.000014*62"
1761939172.5627189,1761939172.5624368,-1.5009831567151234e-06,-7.801621756414653e-06,2.4783675378319483e-06,-0.009,-0.231,9.84,2.4590000000000003e-05,4.62e-06,3.292e-05,"$VNYMR,-077.690,-001.302,+000.145,+00.0462,+00.2459,-00.3292,-00.231,-00.009,-09.840,-00.000447,-00.000086,-00.000142*65"
1761939172.5875835,1761939172.5874135,1.738347934986352e-05,2.2427480888127134e-05,1.689478715930511e-05,-0.004,-0.243,9.922,2.41e-05,4.62e-06,3.302e-05,"$VNYMR,-077.690,-001.304,+000.145,+00.0462,+00.2410,-00.3302,-00.243,-00.004,-09.922,+00.001285,+00.000996,-00.000968*6A"
1761939172.6126275,1761939172.6124458,-5.592034923389832e-05,-2.326523892908441e-05,-5.88175957922089e-06,-0.031,-0.243,9.871,2.44e-05,4.43e-06,3.292e-05,"$VNYMR,-077.690,-001.305,+000.144,+00.0443,+00.2440,-00.3292,-00.243,-00.031,-09.871,-00.001333,-00.003204,+00.000337*6C"
1761939172.6376567,1761939172.6374395,6.112143040484142e-05,1.5707963267948964e-05,1.0925761117484503e-05,-0.014,-0.196,9.881,2.4200000000000002e-05,4.62e-06,3.302e-05,"$VNYMR,-077.690,-001.305,+000.144,+00.0462,+00.2420,-00.3302,-00.196,-00.014,-09.881,+00.000900,+00.003502,-00.000626*6B"
1761939172.662804,1761939172.6625617,-1.9949113350295186e-05,-1.2566370614359173e-06,5.480333851262195e-06,-0.012,-0.208,9.92,2.43e-05,4.9100000000000004e-06,3.279e-05,"$VNYMR,-077.689,-001.305,+000.143,+00.0491,+00.2430,-00.3279,-00.208,-00.012,-09.920,-00.000072,-00.001143,-00.000314*67"
1761939172.6889553,1761939172.687915,2.717477645355171e-05,8.674286382411819e-06,-4.86946861306418e-06,-0.028,-0.17,9.859,2.45e-05,4.53e-06,3.292e-05,"$VNYMR,-077.687,-001.303,+000.143,+00.0453,+00.2450,-00.3292,-00.170,-00.028,-09.859,+00.000497,+00.001557,+00.000279*6A"
1761939172.7134159,1761939172.7126198,-3.5273104182805394e-05,5.864306286700947e-06,8.831366015091308e-06,0.003,-0.202,9.9,2.4200000000000002e-05,4.72e-06,3.269000000000001e-05,"$VNYMR,-077.688,-001.302,+000.143,+00.0472,+00.2420,-00.3269,-00.202,+00.003,-09.900,+00.000336,-00.002021,-00.000506*64"
1761939172.7382386,1761939172.7375987,2.8693212902786778e-05,-2.0123646275494617e-05,-7.243116395776468e-06,-0.047,-0.237,9.85,2.44e-05,4.72e-06,3.302e-05,"$VNYMR,-077.687,-001.302,+000.143,+00.0472,+00.2440,-00.3302,-00.237,-00.047,-09.850,-00.001153,+00.001644,+00.000415*66"
1761939172.7633696,1761939172.7625685,-1.944296786721683e-05,-3.1590459461097367e-06,-1.0629055144645467e-05,-0.011,-0.232,9.907,2.488e-05,4.8200000000000004e-06,3.313e-05,"$VNYMR,-077.688,-001.304,+000.144,+00.0482,+00.2488,-00.3313,-00.232,-00.011,-09.907,-00.000181,-00.001114,+00.000609*63"
1761939172.788296,1761939172.7876003,-2.314306588144481e-05,-2.3177972466484697e-05,9.73893722612836e-06,-0.015,-0.234,9.83,2.4690000000000002e-05,4.92e-06,3.3010000000000004e-05,"$VNYMR,-077.688,-001.306,+000.142,+00.0492,+00.2469,-00.3301,-00.234,-00.015,-09.830,-00.001328,-00.001326,-00.000558*6F"
1761939172.8131542,1761939172.812587,9.948376736367678e-06,-1.762782544514273e-06,7.504915783575617e-07,-0.014,-0.217,9.92,2.43e-05,4.52e-06,3.281e-05,"$VNYMR,-077.687,-001.306,+000.142,+00.0452,+00.2430,-00.3281,-00.217,-00.014,-09.920,-00.000101,+00.000570,-00.000043*6C"
1761939172.8385222,1761939172.8379736,-1.762782544514273e-06,3.874630939427412e-06,7.068583470577034e-06,-0.021,-0.232,9.884,2.43e-05,4.72e-06,3.2579999999999996e-05,"$VNYMR,-077.687,-001.306,+000.142,+00.0472,+00.2430,-00.3258,-00.232,-00.021,-09.884,+00.000222,-00.000101,-00.000405*62"
1761939172.8642242,1761939172.8635232,1.3910274138394806e-05,-9.773843811168246e-07,-1.8640116411299438e-05,-0.037,-0.204,9.894,2.479e-05,4.8200000000000004e-06,3.2579999999999996e-05,"$VNYMR,-077.685,-001.307,+000.142,+00.0482,+00.2479,-00.3258,-00.204,-00.037,-09.894,-00.000056,+00.000797,+00.001068*60"
1761939172.888859,1761939172.8879259,2.7052603405912107e-06,1.1990411961201043e-05,8.918632477691023e-06,-0.033,-0.216,9.886,2.537e-05,4.64e-06,3.281e-05,"$VNYMR,-077.684,-001.305,+000.142,+00.0464,+00.2537,-00.3281,-00.216,-00.033,-09.886,+00.000687,+00.000155,-00.000511*68"
1761939172.9131775,1761939172.912589,3.59188760060433e-05,1.0384709049366261e-05,-7.906341511534313e-06,-0.045,-0.217,9.85,2.4010000000000002e-05,4.710000000000001e-06,3.268e-05,"$VNYMR,-077.684,-001.305,+000.144,+00.0471,+00.2401,-00.3268,-00.217,-00.045,-09.850,+00.000595,+00.002058,+00.000453*6D"
1761939172.9381802,1761939172.9375644,-5.7072266540214576e-06,4.380776422505767e-06,-1.5865042900628455e-05,-0.017,-0.223,9.911,2.4590000000000003e-05,4.72e-06,3.302e-05,"$VNYMR,-077.682,-001.303,+000.144,+00.0472,+00.2459,-00.3302,-00.223,-00.017,-09.911,+00.000251,-00.000327,+00.000909*68"
1761939172.9632099,1761939172.9626095,4.574507969477138e-05,9.704030641088471e-06,-2.8728119487826663e-05,-0.011,-0.239,9.878,2.4590000000000003e-05,4.53e-06,3.27e-05,"$VNYMR,-077.680,-001.303,+000.144,+00.0453,+00.2459,-00.3270,-00.239,-00.011,-09.878,+00.000556,+00.002621,+00.001646*6C"
1761939172.9886806,1761939172.9877272,-1.8832102629018817e-05,3.4557519189487725e-06,-1.4241886696273729e-05,-0.026,-0.253,9.9,2.4200000000000002e-05,4.52e-06,3.303e-05,"$VNYMR,-077.679,-001.304,+000.144,+00.0452,+00.2420,-00.3303,-00.253,-00.026,-09.900,+00.000198,-00.001079,+00.000816*63"
1761939173.013212,1761939173.012604,2.5062928058638573e-05,1.6702800941585733e-05,-1.2269664641520135e-05,-0.042,-0.244,9.89,2.43e-05,4.72e-06,3.291e-05,"$VNYMR,-077.677,-001.304,+000.145,+00.0472,+00.2430,-00.3291,-00.244,-00.042,-09.890,+00.000957,+00.001436,+00.000703*60"
1761939173.0385883,1761939173.0377157,6.283185307179586e-07,4.729842272904633e-06,-1.1868238913561442e-05,-0.021,-0.251,9.866,2.4590000000000003e-05,4.72e-06,3.324e-05,"$VNYMR,-077.677,-001.305,+000.146,+00.0472,+00.2459,-00.3324,-00.251,-00.021,-09.866,+00.000271,+00.000036,+00.000680*6A"
1761939173.0635076,1761939173.0626366,-6.108652381980153e-06,1.413716694115407e-06,2.209586833024821e-05,0.053,-0.231,9.888,2.488e-05,4.92e-06,3.269000000000001e-05,"$VNYMR,-077.676,-001.307,+000.144,+00.0492,+00.2488,-00.3269,-00.231,+00.053,-09.888,+00.000081,-00.000350,-00.001266*67"
1761939173.088368,1761939173.0876427,4.0491638646268445e-06,-1.4695672301792254e-05,1.2409290981679684e-05,0.003,-0.2,9.868,2.4390000000000002e-05,4.81e-06,3.302e-05,"$VNYMR,-077.675,-001.307,+000.141,+00.0481,+00.2439,-00.3302,-00.200,+00.003,-09.868,-00.000842,+00.000232,-00.000711*6A"
1761939173.1130166,1761939173.1125722,-3.1241393610698495e-06,7.400196028455957e-06,-3.406882699892931e-05,-0.097,-0.233,9.858,2.44e-05,4.8200000000000004e-06,3.213e-05,"$VNYMR,-077.675,-001.306,+000.141,+00.0482,+00.2440,-00.3213,-00.233,-00.097,-09.858,+00.000424,-00.000179,+00.001952*61"
1761939173.1380703,1761939173.1375484,-1.466076571675237e-05,-7.888888219014369e-06,-2.570869988187647e-05,-0.045,-0.26,9.912,2.43e-05,4.72e-06,3.302e-05,"$VNYMR,-077.672,-001.306,+000.144,+00.0472,+00.2430,-00.3302,-00.260,-00.045,-09.912,-00.000452,-00.000840,+00.001473*66"
1761939173.1627383,1761939173.162535,-3.4470252726888015e-05,-1.53588974175501e-06,1.0786134777324956e-05,0.021,-0.23,9.892,2.4690000000000002e-05,4.72e-06,3.269000000000001e-05,"$VNYMR,-077.672,-001.308,+000.144,+00.0472,+00.2469,-00.3269,-00.230,+00.021,-09.892,-00.000088,-00.001975,-00.000618*6D"
1761939173.1878543,1761939173.187564,3.0735248127620145e-05,-1.6545721308906242e-05,2.5028021473598685e-05,-0.006,-0.218,9.885,2.43e-05,4.62e-06,3.2800000000000004e-05,"$VNYMR,-077.673,-001.307,+000.142,+00.0462,+00.2430,-00.3280,-00.218,-00.006,-09.885,-00.000948,+00.001761,-00.001434*65"
1761939173.2128127,1761939173.212582,1.7907078125461822e-05,1.5009831567151233e-05,1.780235837034216e-06,-0.045,-0.219,9.904,2.44e-05,4.72e-06,3.313e-05,"$VNYMR,-077.674,-001.306,+000.140,+00.0472,+00.2440,-00.3313,-00.219,-00.045,-09.904,+00.000860,+00.001026,-00.000102*6A"
1761939173.2370384,1761939173.2367501,9.145525280450287e-06,-4.485496177625427e-06,-5.201081170943102e-06,-0.074,-0.2,9.935,2.449e-05,4.72e-06,3.346e-05,"$VNYMR,-077.673,-001.305,+000.141,+00.0472,+00.2449,-00.3346,-00.200,-00.074,-09.935,-00.000257,+00.000524,+00.000298*66"
1761939173.2630777,1761939173.2626798,1.7191493132144147e-05,9.197885158010116e-06,-9.94837673636768e-07,-0.061,-0.211,9.872,2.43e-05,4.420000000000001e-06,3.38e-05,"$VNYMR,-077.673,-001.305,+000.143,+00.0442,+00.2430,-00.3380,-00.211,-00.061,-09.872,+00.000527,+00.000985,+00.000057*65"
1761939173.2870076,1761939173.2866082,4.084070449666731e-06,1.0855947947404731e-05,1.0943214410004445e-05,-0.012,-0.216,9.893,2.43e-05,4.72e-06,3.313e-05,"$VNYMR,-077.674,-001.304,+000.144,+00.0472,+00.2430,-00.3313,-00.216,-00.012,-09.893,+00.000622,+00.000234,-00.000627*61"
1761939173.312848,1761939173.3124983,-6.806784082777885e-07,-3.9723693775390936e-05,1.1047934165124105e-05,0.003,-0.246,9.864,2.43e-05,4.72e-06,3.302e-05,"$VNYMR,-077.674,-001.305,+000.143,+00.0472,+00.2430,-00.3302,-00.246,+00.003,-09.864,-00.002276,-00.000039,-00.000633*61"
1761939173.3376143,1761939173.3374207,4.8729592715681685e-05,-6.318091892219473e-06,-1.684242728174528e-05,-0.015,-0.19,9.888,2.43e-05,4.8200000000000004e-06,3.257e-05,"$VNYMR,-077.673,-001.303,+000.140,+00.0482,+00.2430,-00.3257,-00.190,-00.015,-09.888,-00.000362,+00.002792,+00.000965*68"
1761939173.3625853,1761939173.3624442,1.6929693744344997e-06,-2.787290815434944e-05,-1.3316862192716735e-05,-0.057,-0.231,9.882,2.489e-05,4.53e-06,3.292e-05,"$VNYMR,-077.671,-001.302,+000.141,+00.0453,+00.2489,-00.3292,-00.231,-00.057,-09.882,-00.001597,+00.000097,+00.000763*6C"
1761939173.3866448,1761939173.3864913,1.4870205226991688e-05,8.53466004225227e-06,4.118977034706618e-06,-0.022,-0.214,9.922,2.44e-05,4.52e-06,3.27e-05,"$VNYMR,-077.671,-001.302,+000.142,+00.0452,+00.2440,-00.3270,-00.214,-00.022,-09.922,+00.000489,+00.000852,-00.000236*62"
1761939173.4126163,1761939173.412435,-9.26769832808989e-06,-8.395033702092725e-06,-9.599310885968813e-07,-0.021,-0.216,9.872,2.41e-05,4.81e-06,3.279e-05,"$VNYMR,-077.671,-001.301,+000.142,+00.0481,+00.2410,-00.3279,-00.216,-00.021,-09.872,-00.000481,-00.000531,+00.000055*67"
1761939173.4366932,1761939173.4364865,2.6354471705114377e-05,2.3387411976724018e-05,1.53588974175501e-06,-0.01,-0.201,9.907,2.449e-05,4.62e-06,3.347e-05,"$VNYMR,-077.669,-001.301,+000.142,+00.0462,+00.2449,-00.3347,-00.201,-00.010,-09.907,+00.001340,+00.001510,-00.000088*6B"
1761939173.4625852,1761939173.4624593,-2.83790536374278e-05,-1.5306537539990268e-05,-1.3369222070276564e-05,-0.02,-0.242,9.95,2.44e-05,4.72e-06,3.302e-05,"$VNYMR,-077.671,-001.301,+000.142,+00.0472,+00.2440,-00.3302,-00.242,-00.020,-09.950,-00.000877,-00.001626,+00.000766*64"
1761939173.4866283,1761939173.486505,3.0211649352021842e-05,3.892084231947355e-06,-1.3177235852557188e-05,-0.049,-0.25,9.832,2.4390000000000002e-05,4.62e-06,3.369e-05,"$VNYMR,-077.670,-001.302,+000.143,+00.0462,+00.2439,-00.3369,-00.250,-00.049,-09.832,+00.000223,+00.001731,+00.000755*60"
1761939173.5125623,1761939173.5124624,-1.8971728969178364e-05,-3.2288591161895097e-06,5.061454830783556e-07,-0.071,-0.224,9.938,2.498e-05,4.8200000000000004e-06,3.324e-05,"$VNYMR,-077.668,-001.301,+000.144,+00.0482,+00.2498,-00.3324,-00.224,-00.071,-09.938,-00.000185,-00.001087,-00.000029*6D"
1761939173.536606,1761939173.5365143,-4.8677232838121845e-05,-1.1990411961201043e-05,-2.007128639793479e-06,-0.066,-0.206,9.944,2.498e-05,4.53e-06,3.226e-05,"$VNYMR,-077.668,-001.302,+000.146,+00.0453,+00.2498,-00.3226,-00.206,-00.066,-09.944,-00.000687,-00.002789,+00.000115*69"
1761939173.562634,1761939173.5624855,7.7562431958628e-05,2.1066124071571557e-05,-5.497787143782138e-06,0.027,-0.263,9.906,2.43e-05,4.52e-06,3.303e-05,"$VNYMR,-077.668,-001.301,+000.146,+00.0452,+00.2430,-00.3303,-00.263,+00.027,-09.906,+00.001207,+00.004444,+00.000315*62"
1761939173.5866802,1761939173.5865626,-3.921754829231258e-05,-1.7418385934903408e-05,-7.016223593017205e-06,-0.0,-0.245,9.847,2.478e-05,4.72e-06,3.347e-05,"$VNYMR,-077.668,-001.303,+000.144,+00.0472,+00.2478,-00.3347,-00.245,-00.000,-09.847,-00.000998,-00.002247,+00.000402*61"
1761939173.6127212,1761939173.6125948,6.440264939859077e-06,3.597123588360313e-05,1.1239920382843483e-05,-0.016,-0.238,9.886,2.4690000000000002e-05,4.72e-06,3.313e-05,"$VNYMR,-077.669,-001.303,+000.144,+00.0472,+00.2469,-00.3313,-00.238,-00.016,-09.886,+00.002061,+00.000369,-00.000644*65"
1761939173.6368008,1761939173.636624,-1.2618730491919003e-05,-4.1311943394705784e-05,-2.303834612632515e-06,-0.072,-0.254,9.854,2.4590000000000003e-05,4.53e-06,3.325e-05,"$VNYMR,-077.668,-001.303,+000.144,+00.0453,+00.2459,-00.3325,-00.254,-00.072,-09.854,-00.002367,-00.000723,+00.000132*69"
1761939173.6629283,1761939173.6626763,2.600540585471551e-06,2.715732316103177e-05,3.490658503988659e-08,-0.041,-0.215,9.922,2.44e-05,4.8200000000000004e-06,3.257e-05,"$VNYMR,-077.668,-001.304,+000.146,+00.0482,+00.2440,-00.3257,-00.215,-00.041,-09.922,+00.001556,+00.000149,-00.000002*60"
1761939173.6868694,1761939173.686671,-1.0000736613927509e-05,-9.302604913129778e-06,-8.709192967451704e-06,0.027,-0.177,9.874,2.44e-05,4.72e-06,3.2800000000000004e-05,"$VNYMR,-077.665,-001.303,+000.146,+00.0472,+00.2440,-00.3280,-00.177,+00.027,-09.874,-00.000533,-00.000573,+00.000499*63"
1761939173.7129955,1761939173.7126098,2.4958208303518915e-05,5.333726194094671e-05,5.218534463463045e-06,0.005,-0.216,9.964,2.4690000000000002e-05,5.02e-06,3.257e-05,"$VNYMR,-077.664,-001.303,+000.145,+00.0502,+00.2469,-00.3257,-00.216,+00.005,-09.964,+00.003056,+00.001430,-00.000299*60"
1761939173.7372165,1761939173.7367039,-5.393067388662478e-06,-1.0314895879286488e-05,-2.460914245312005e-06,-0.033,-0.251,9.863,2.4590000000000003e-05,4.6300000000000006e-06,3.2579999999999996e-05,"$VNYMR,-077.662,-001.303,+000.144,+00.0463,+00.2459,-00.3258,-00.251,-00.033,-09.863,-00.000591,-00.000309,+00.000141*6A"
1761939173.7627892,1761939173.7626023,3.0892327760299636e-05,1.1571532940722404e-05,-7.470009198535731e-06,-0.059,-0.214,9.874,2.4590000000000003e-05,4.72e-06,3.269000000000001e-05,"$VNYMR,-077.661,-001.303,+000.145,+00.0472,+00.2459,-00.3269,-00.214,-00.059,-09.874,+00.000663,+00.001770,+00.000428*6E"
1761939173.7866728,1761939173.7865674,-7.766715171374766e-06,2.951351765122411e-05,-1.0768681484805013e-05,-0.066,-0.215,9.904,2.4200000000000002e-05,4.710000000000001e-06,3.302e-05,"$VNYMR,-077.660,-001.304,+000.147,+00.0471,+00.2420,-00.3302,-00.215,-00.066,-09.904,+00.001691,-00.000445,+00.000617*60"
1761939173.812747,1761939173.812629,1.2426744274199626e-05,5.532693728822025e-06,9.721483933608415e-06,-0.002,-0.193,9.842,2.45e-05,4.43e-06,3.292e-05,"$VNYMR,-077.661,-001.303,+000.147,+00.0443,+00.2450,-00.3292,-00.193,-00.002,-09.842,+00.000317,+00.000712,-00.000557*68"
1761939173.8367805,1761939173.836653,-2.907718533822553e-05,-2.8623399732707005e-06,1.2636183784438947e-05,-0.006,-0.199,9.896,2.4390000000000002e-05,4.81e-06,3.3350000000000004e-05,"$VNYMR,-077.662,-001.302,+000.145,+00.0481,+00.2439,-00.3335,-00.199,-00.006,-09.896,-00.000164,-00.001666,-00.000724*61"
1761939173.8619165,1761939173.86171,-3.1066860685499066e-06,8.063421144213802e-06,-1.3700834628155487e-05,-0.039,-0.217,9.884,2.4590000000000003e-05,4.8200000000000004e-06,3.2800000000000004e-05,"$VNYMR,-077.662,-001.301,+000.145,+00.0482,+00.2459,-00.3280,-00.217,-00.039,-09.884,+00.000462,-00.000178,+00.000785*63"
1761939173.8869498,1761939173.8867347,-1.970476725501598e-05,-1.275835683207855e-05,-1.6947147036864938e-05,-0.024,-0.239,9.932,2.45e-05,4.53e-06,3.281e-05,"$VNYMR,-077.660,-001.302,+000.144,+00.0453,+00.2450,-00.3281,-00.239,-00.024,-09.932,-00.000731,-00.001129,+00.000971*68"
1761939173.9129162,1761939173.9126966,8.709192967451704e-06,-1.630137521362704e-05,1.6929693744344997e-05,-0.046,-0.242,9.861,2.449e-05,4.9100000000000004e-06,3.268e-05,"$VNYMR,-077.661,-001.303,+000.145,+00.0491,+00.2449,-00.3268,-00.242,-00.046,-09.861,-00.000934,+00.000499,-00.000970*62"
1761939173.9370203,1761939173.936842,-4.1381756564785554e-05,2.0420352248333655e-05,-3.7524578917878083e-06,-0.012,-0.207,9.912,2.44e-05,4.52e-06,3.281e-05,"$VNYMR,-077.659,-001.304,+000.145,+00.0452,+00.2440,-00.3281,-00.207,-00.012,-09.912,+00.001170,-00.002371,+00.000215*6E"
1761939173.9629285,1761939173.9627216,2.790781473938933e-05,-5.4279739737023655e-06,-1.4172073526193955e-05,-0.015,-0.208,9.921,2.498e-05,4.92e-06,3.269000000000001e-05,"$VNYMR,-077.660,-001.302,+000.144,+00.0492,+00.2498,-00.3269,-00.208,-00.015,-09.921,-00.000311,+00.001599,+00.000812*6E"
1761939173.987037,1761939173.9868631,-4.0439278768708614e-05,-1.7523105690023066e-05,-1.9198621771937624e-07,-0.03,-0.193,9.864,2.4590000000000003e-05,4.72e-06,3.2800000000000004e-05,"$VNYMR,-077.661,-001.302,+000.143,+00.0472,+00.2459,-00.3280,-00.193,-00.030,-09.864,-00.001004,-00.002317,+00.000011*62"
1761939174.0121648,1761939174.011905,1.7872171540421934e-05,-3.0368728984701336e-06,-7.853981633974482e-06,-0.088,-0.231,9.901,2.498e-05,4.7300000000000005e-06,3.292e-05,"$VNYMR,-077.660,-001.302,+000.144,+00.0473,+00.2498,-00.3292,-00.231,-00.088,-09.901,-00.000174,+00.001024,+00.000450*61"
1761939174.03902,1761939174.037373,-3.4557519189487725e-06,-2.1572269554649912e-05,-1.6685347649065792e-05,-0.064,-0.237,9.864,2.43e-05,4.72e-06,3.2579999999999996e-05,"$VNYMR,-077.659,-001.304,+000.147,+00.0472,+00.2430,-00.3258,-00.237,-00.064,-09.864,-00.001236,-00.000198,+00.000956*63"
1761939174.0628438,1761939174.0622258,3.4208453339088858e-06,2.2235494670407758e-05,-4.642575810304917e-06,-0.009,-0.216,9.905,2.4690000000000002e-05,4.8200000000000004e-06,3.2800000000000004e-05,"$VNYMR,-077.657,-001.304,+000.146,+00.0482,+00.2469,-00.3280,-00.216,-00.009,-09.905,+00.001274,+00.000196,+00.000266*64"
1761939174.088431,1761939174.0872772,2.3911010752322315e-06,-2.441715623540067e-05,1.0402162341886204e-05,-0.003,-0.254,9.882,2.4200000000000002e-05,4.72e-06,3.2800000000000004e-05,"$VNYMR,-077.657,-001.303,+000.144,+00.0472,+00.2420,-00.3280,-00.254,-00.003,-09.882,-00.001399,+00.000137,-00.000596*60"
1761939174.1123965,1761939174.1121051,-3.824016391119576e-05,1.921607506445757e-05,1.6179202165987434e-05,-0.029,-0.244,9.917,2.4590000000000003e-05,4.8200000000000004e-06,3.2579999999999996e-05,"$VNYMR,-077.658,-001.303,+000.142,+00.0482,+00.2459,-00.3258,-00.244,-00.029,-09.917,+00.001101,-00.002191,-00.000927*62"
1761939174.1383138,1761939174.1372914,4.031710572106901e-05,1.780235837034216e-06,9.6342174710087e-06,-0.04,-0.267,9.835,2.4590000000000003e-05,4.62e-06,3.314e-05,"$VNYMR,-077.659,-001.304,+000.144,+00.0462,+00.2459,-00.3314,-00.267,-00.040,-09.835,+00.000102,+00.002310,-00.000552*6B"
1761939174.1627376,1761939174.1621056,-1.7907078125461822e-05,2.357939819444339e-05,1.064650843716541e-06,-0.047,-0.222,9.932,2.4690000000000002e-05,4.72e-06,3.302e-05,"$VNYMR,-077.657,-001.306,+000.145,+00.0472,+00.2469,-00.3302,-00.222,-00.047,-09.932,+00.001351,-00.001026,-00.000061*60"
1761939174.1880827,1761939174.1872487,2.83790536374278e-05,1.6231562043547265e-06,-8.587019919812101e-06,-0.021,-0.228,9.854,2.43e-05,4.72e-06,3.291e-05,"$VNYMR,-077.657,-001.305,+000.147,+00.0472,+00.2430,-00.3291,-00.228,-00.021,-09.854,+00.000093,+00.001626,+00.000492*6F"
1761939174.2129018,1761939174.2121823,-1.0088003076527223e-05,3.822271061867582e-06,1.4486232791552936e-05,-0.005,-0.194,9.898,2.4690000000000002e-05,4.72e-06,3.291e-05,"$VNYMR,-077.658,-001.303,+000.146,+00.0472,+00.2469,-00.3291,-00.194,-00.005,-09.898,+00.000219,-00.000578,-00.000830*64"
1761939174.2383795,1761939174.2373836,-1.043706892692609e-05,-2.1118483949131386e-06,-3.839724354387525e-07,-0.017,-0.222,9.884,2.5080000000000004e-05,4.6300000000000006e-06,3.27e-05,"$VNYMR,-077.656,-001.303,+000.145,+00.0463,+00.2508,-00.3270,-00.222,-00.017,-09.884,-00.000121,-00.000598,+00.000022*6D"
1761939174.2632318,1761939174.262239,2.6878070480712677e-06,1.2479104151759457e-05,1.0786134777324956e-05,-0.02,-0.225,9.922,2.488e-05,4.8200000000000004e-06,3.247e-05,"$VNYMR,-077.657,-001.303,+000.145,+00.0482,+00.2488,-00.3247,-00.225,-00.020,-09.922,+00.000715,+00.000154,-00.000618*6C"
1761939174.2885334,1761939174.287588,-1.509709802975095e-05,1.2723450247038663e-05,1.3840460968315032e-05,-0.025,-0.259,9.845,2.5080000000000004e-05,4.7300000000000005e-06,3.314e-05,"$VNYMR,-077.657,-001.304,+000.145,+00.0473,+00.2508,-00.3314,-00.259,-00.025,-09.845,+00.000729,-00.000865,-00.000793*65"
1761939174.3148043,1761939174.3144915,-4.5727626402251436e-06,1.5498523757709647e-05,-1.4241886696273729e-05,-0.038,-0.241,9.9,2.537e-05,4.93e-06,3.291e-05,"$VNYMR,-077.656,-001.306,+000.146,+00.0493,+00.2537,-00.3291,-00.241,-00.038,-09.900,+00.000888,-00.000262,+00.000816*63"
1761939174.337374,1761939174.3369076,-1.3264502315156905e-06,2.0769418098732523e-06,3.0892327760299633e-06,-0.01,-0.224,9.857,2.4390000000000002e-05,4.81e-06,3.302e-05,"$VNYMR,-077.656,-001.307,+000.145,+00.0481,+00.2439,-00.3302,-00.224,-00.010,-09.857,+00.000119,-00.000076,-00.000177*62"
1761939174.3621054,1761939174.3618813,2.6249751949994715e-05,-5.393067388662478e-06,7.504915783575617e-07,-0.005,-0.224,9.917,2.4590000000000003e-05,4.53e-06,3.281e-05,"$VNYMR,-077.656,-001.307,+000.144,+00.0453,+00.2459,-00.3281,-00.224,-00.005,-09.917,-00.000309,+00.001504,-00.000043*65"
1761939174.3870697,1761939174.3868968,2.2165681500327983e-06,1.1344640137963142e-05,-9.075712110370514e-06,-0.048,-0.22,9.881,2.4590000000000003e-05,4.72e-06,3.2800000000000004e-05,"$VNYMR,-077.657,-001.307,+000.143,+00.0472,+00.2459,-00.3280,-00.220,-00.048,-09.881,+00.000650,+00.000127,+00.000520*6F"
1761939174.4120975,1761939174.4119174,5.304055596810767e-05,-1.4067353771074295e-05,-1.3264502315156906e-05,-0.054,-0.227,9.886,2.43e-05,4.52e-06,3.314e-05,"$VNYMR,-077.657,-001.306,+000.145,+00.0452,+00.2430,-00.3314,-00.227,-00.054,-09.886,-00.000806,+00.003039,+00.000760*64"
1761939174.4370728,1761939174.4368763,-2.6354471705114377e-05,-2.452187599052033e-05,1.1431906600562858e-05,-0.041,-0.235,9.914,2.44e-05,4.72e-06,3.302e-05,"$VNYMR,-077.658,-001.307,+000.146,+00.0472,+00.2440,-00.3302,-00.235,-00.041,-09.914,-00.001405,-00.001510,-00.000655*63"
1761939174.4621127,1761939174.4619215,1.3037609512397643e-05,1.08035880698449e-05,-1.5062191444711064e-05,-0.039,-0.2,9.889,2.4200000000000002e-05,4.52e-06,3.247e-05,"$VNYMR,-077.657,-001.305,+000.146,+00.0452,+00.2420,-00.3247,-00.200,-00.039,-09.889,+00.000619,+00.000747,+00.000863*64"
1761939174.4872057,1761939174.486982,-3.495894491744642e-05,-2.9007372168145757e-05,-1.223475805648025e-05,-0.028,-0.212,9.859,2.449e-05,4.92e-06,3.2460000000000004e-05,"$VNYMR,-077.656,-001.306,+000.145,+00.0492,+00.2449,-00.3246,-00.212,-00.028,-09.859,-00.001662,-00.002003,+00.000701*6A"
1761939174.513364,1761939174.5122192,1.4119713648634126e-05,2.0943951023931955e-07,-1.980948701013564e-05,-0.011,-0.224,9.878,2.449e-05,4.8200000000000004e-06,3.324e-05,"$VNYMR,-077.655,-001.306,+000.142,+00.0482,+00.2449,-00.3324,-00.224,-00.011,-09.878,+00.000012,+00.000809,+00.001135*66"
1761939174.5376809,1761939174.5370212,5.462880558742251e-06,8.53466004225227e-06,-4.5378560551852565e-07,-0.058,-0.242,9.891,2.557e-05,4.540000000000001e-06,3.26e-05,"$VNYMR,-077.654,-001.307,+000.142,+00.0454,+00.2557,-00.3260,-00.242,-00.058,-09.891,+00.000489,+00.000313,+00.000026*6C"
1761939174.563348,1761939174.5624852,-2.3806290997202655e-05,-4.433136300065597e-06,6.370451769779303e-06,-0.053,-0.252,9.867,2.44e-05,4.52e-06,3.2590000000000005e-05,"$VNYMR,-077.653,-001.307,+000.143,+00.0452,+00.2440,-00.3259,-00.252,-00.053,-09.867,-00.000254,-00.001364,-00.000365*67"
1761939174.5870652,1761939174.5869126,1.0122909661567111e-06,3.926990816987241e-06,-1.4206980111233844e-05,-0.03,-0.213,9.881,2.4010000000000002e-05,4.710000000000001e-06,3.268e-05,"$VNYMR,-077.655,-001.308,+000.144,+00.0471,+00.2401,-00.3268,-00.213,-00.030,-09.881,+00.000225,+00.000058,+00.000814*67"
1761939174.6121612,1761939174.6119804,1.0157816246606998e-05,1.87448361664191e-05,1.614429558094755e-05,0.006,-0.203,9.892,2.4590000000000003e-05,4.8200000000000004e-06,3.291e-05,"$VNYMR,-077.656,-001.308,+000.142,+00.0482,+00.2459,-00.3291,-00.203,+00.006,-09.892,+00.001074,+00.000582,-00.000925*65"
1761939174.6371622,1761939174.6369815,-1.762782544514273e-06,1.2461650859239513e-05,-2.7925268031909274e-06,-0.022,-0.21,9.901,2.43e-05,4.9100000000000004e-06,3.268e-05,"$VNYMR,-077.655,-001.307,+000.141,+00.0491,+00.2430,-00.3268,-00.210,-00.022,-09.901,+00.000714,-00.000101,+00.000160*6E"
1761939174.662186,1761939174.6620138,-1.9844393595175527e-05,-2.0682151636132805e-05,8.290313946973065e-06,-0.028,-0.243,9.863,2.44e-05,4.72e-06,3.2800000000000004e-05,"$VNYMR,-077.655,-001.305,+000.142,+00.0472,+00.2440,-00.3280,-00.243,-00.028,-09.863,-00.001185,-00.001137,-00.000475*60"
1761939174.687532,1761939174.687158,5.969026041820607e-06,1.1554079648202462e-05,-3.246312408709453e-06,-0.033,-0.253,9.913,2.4690000000000002e-05,4.43e-06,3.3150000000000006e-05,"$VNYMR,-077.654,-001.307,+000.143,+00.0443,+00.2469,-00.3315,-00.253,-00.033,-09.913,+00.000662,+00.000342,+00.000186*6A"
1761939174.7122805,1761939174.7120602,-1.8395770316020233e-05,-1.169370598836201e-06,-1.0000736613927509e-05,-0.017,-0.262,9.885,2.4590000000000003e-05,4.6300000000000006e-06,3.247e-05,"$VNYMR,-077.654,-001.309,+000.143,+00.0463,+00.2459,-00.3247,-00.262,-00.017,-09.885,-00.000067,-00.001054,+00.000573*61"
1761939174.737297,1761939174.7370613,5.110324049839397e-05,2.2863813201125715e-05,1.5655603390389135e-05,-0.011,-0.241,9.903,2.449e-05,4.62e-06,3.269000000000001e-05,"$VNYMR,-077.654,-001.310,+000.142,+00.0462,+00.2449,-00.3269,-00.241,-00.011,-09.903,+00.001310,+00.002928,-00.000897*6E"
1761939174.763122,1761939174.7622185,-2.6354471705114377e-05,4.188790204786391e-07,1.5009831567151233e-05,-0.005,-0.246,9.859,2.44e-05,4.52e-06,3.303e-05,"$VNYMR,-077.654,-001.310,+000.141,+00.0452,+00.2440,-00.3303,-00.246,-00.005,-09.859,+00.000024,-00.001510,-00.000860*69"
1761939174.7879379,1761939174.7871904,2.04378055408536e-05,8.290313946973065e-06,2.827433388230814e-06,-0.044,-0.231,9.847,2.44e-05,4.62e-06,3.2800000000000004e-05,"$VNYMR,-077.655,-001.310,+000.140,+00.0462,+00.2440,-00.3280,-00.231,-00.044,-09.847,+00.000475,+00.001171,-00.000162*64"
1761939174.8132973,1761939174.8124108,-2.658136450787364e-05,-5.096361415823443e-06,-2.843141351498763e-05,-0.03,-0.213,9.922,2.4690000000000002e-05,4.6300000000000006e-06,3.2579999999999996e-05,"$VNYMR,-077.654,-001.310,+000.140,+00.0463,+00.2469,-00.3258,-00.213,-00.030,-09.922,-00.000292,-00.001523,+00.001629*68"
1761939174.838346,1761939174.837456,-4.974188368183839e-06,-3.8571776469074684e-06,6.422811647339133e-06,-0.023,-0.22,9.861,2.479e-05,4.6300000000000006e-06,3.281e-05,"$VNYMR,-077.655,-001.310,+000.140,+00.0463,+00.2479,-00.3281,-00.220,-00.023,-09.861,-00.000221,-00.000285,-00.000368*6D"
1761939174.862693,1761939174.8621264,-2.3230332344044527e-05,-8.290313946973065e-06,1.2304571226560024e-05,-0.022,-0.241,9.894,2.43e-05,4.72e-06,3.2800000000000004e-05,"$VNYMR,-077.655,-001.310,+000.140,+00.0472,+00.2430,-00.3280,-00.241,-00.022,-09.894,-00.000475,-00.001331,-00.000705*6A"
1761939174.887713,1761939174.8871107,-7.609635538695278e-06,9.180431865490174e-06,-6.5100781099388495e-06,-0.006,-0.224,9.824,2.43e-05,4.9100000000000004e-06,3.345000000000001e-05,"$VNYMR,-077.654,-001.312,+000.140,+00.0491,+00.2430,-00.3345,-00.224,-00.006,-09.824,+00.000526,-00.000436,+00.000373*61"
1761939174.9203212,1761939174.9122667,-8.709192967451704e-06,-7.73180858633488e-06,1.2636183784438947e-05,-0.031,-0.232,9.945,2.44e-05,4.8200000000000004e-06,3.235e-05,"$VNYMR,-077.654,-001.311,+000.140,+00.0482,+00.2440,-00.3235,-00.232,-00.031,-09.945,-00.000443,-00.000499,-00.000724*65"
1761939174.9385064,1761939174.9379833,1.5271630954950383e-05,1.7208946424664088e-05,8.901179185171082e-06,-0.031,-0.241,9.863,2.449e-05,4.62e-06,3.269000000000001e-05,"$VNYMR,-077.653,-001.311,+000.141,+00.0462,+00.2449,-00.3269,-00.241,-00.031,-09.863,+00.000986,+00.000875,-00.000510*63"
1761939174.9622874,1761939174.9620361,1.0471975511965978e-06,-1.3962634015954636e-07,7.958701389094144e-06,-0.021,-0.213,9.883,2.4200000000000002e-05,4.72e-06,3.269000000000001e-05,"$VNYMR,-077.652,-001.311,+000.141,+00.0472,+00.2420,-00.3269,-00.213,-00.021,-09.883,-00.000008,+00.000060,-00.000456*62"
1761939174.98727,1761939174.9870706,-1.3962634015954637e-06,-1.2164944886400477e-05,5.689773361501514e-06,-0.026,-0.217,9.841,2.4e-05,4.9000000000000005e-06,3.3560000000000004e-05,"$VNYMR,-077.651,-001.312,+000.141,+00.0490,+00.2400,-00.3356,-00.217,-00.026,-09.841,-00.000697,-00.000080,-00.000326*64"
1761939175.012245,1761939175.0120595,4.276056667386107e-06,2.9845130209103035e-06,-6.771877497737999e-06,-0.038,-0.205,9.892,2.43e-05,4.72e-06,3.247e-05,"$VNYMR,-077.648,-001.311,+000.141,+00.0472,+00.2430,-00.3247,-00.205,-00.038,-09.892,+00.000171,+00.000245,+00.000388*65"
1761939175.0373957,1761939175.0371146,-2.7506389011430633e-05,1.8291050560900574e-05,2.2846359908605774e-05,-0.034,-0.197,9.782,2.4390000000000002e-05,4.81e-06,3.313e-05,"$VNYMR,-077.649,-001.311,+000.142,+00.0481,+00.2439,-00.3313,-00.197,-00.034,-09.782,+00.001048,-00.001576,-00.001309*6C"
1761939175.0633814,1761939175.0623887,2.816961412718848e-05,2.1310470166850766e-05,-1.478293876439197e-05,-0.021,-0.202,9.957,2.449e-05,4.72e-06,3.2579999999999996e-05,"$VNYMR,-077.649,-001.310,+000.141,+00.0472,+00.2449,-00.3258,-00.202,-00.021,-09.957,+00.001221,+00.001614,+00.000847*6C"
1761939175.0881078,1761939175.0874739,-3.830997708127553e-05,-1.5323990832510212e-05,5.88175957922089e-06,-0.02,-0.229,9.896,2.498e-05,4.6300000000000006e-06,3.2370000000000003e-05,"$VNYMR,-077.649,-001.312,+000.142,+00.0463,+00.2498,-00.3237,-00.229,-00.020,-09.896,-00.000878,-00.002195,-00.000337*6C"
1761939175.1131806,1761939175.1123383,1.6371188383706813e-05,4.242895411598215e-05,1.8133970928221083e-05,-0.035,-0.215,9.857,2.4200000000000002e-05,4.81e-06,3.268e-05,"$VNYMR,-077.648,-001.311,+000.142,+00.0481,+00.2420,-00.3268,-00.215,-00.035,-09.857,+00.002431,+00.000938,-00.001039*6F"
1761939175.138025,1761939175.1373446,-2.6668630970473355e-05,-3.525565089028546e-05,-2.567379329683659e-05,-0.015,-0.255,9.892,2.449e-05,4.8200000000000004e-06,3.302e-05,"$VNYMR,-077.647,-001.312,+000.142,+00.0482,+00.2449,-00.3302,-00.255,-00.015,-09.892,-00.002020,-00.001528,+00.001471*6B"
1761939175.163167,1761939175.1622624,3.4505159311927897e-05,3.4278266509168635e-05,-1.090830782496456e-05,0.0,-0.222,9.889,2.449e-05,4.52e-06,3.358e-05,"$VNYMR,-077.644,-001.311,+000.142,+00.0452,+00.2449,-00.3358,-00.222,+00.000,-09.889,+00.001964,+00.001977,+00.000625*6F"
1761939175.1883307,1761939175.1874194,-2.0751964806212578e-05,-2.6179938779914946e-07,2.9845130209103035e-06,-0.02,-0.239,9.939,2.4690000000000002e-05,4.43e-06,3.27e-05,"$VNYMR,-077.644,-001.312,+000.143,+00.0443,+00.2469,-00.3270,-00.239,-00.020,-09.939,-00.000015,-00.001189,-00.000171*67"
1761939175.213178,1761939175.2124295,1.6196655458507378e-05,-4.433136300065597e-06,-5.235987755982989e-08,-0.045,-0.241,9.84,2.45e-05,4.62e-06,3.2579999999999996e-05,"$VNYMR,-077.644,-001.311,+000.143,+00.0462,+00.2450,-00.3258,-00.241,-00.045,-09.840,-00.000254,+00.000928,+00.000003*65"
1761939175.2387378,1761939175.237937,-1.1397000015522973e-05,-6.981317007977319e-07,-1.4067353771074295e-05,-0.016,-0.239,9.882,2.4590000000000003e-05,4.8200000000000004e-06,3.302e-05,"$VNYMR,-077.644,-001.311,+000.143,+00.0482,+00.2459,-00.3302,-00.239,-00.016,-09.882,-00.000040,-00.000653,+00.000806*64"
1761939175.2630782,1761939175.262351,-3.874630939427412e-06,2.722713633111154e-06,-6.405358354819189e-06,-0.015,-0.252,9.897,2.449e-05,4.62e-06,3.2800000000000004e-05,"$VNYMR,-077.644,-001.312,+000.143,+00.0462,+00.2449,-00.3280,-00.252,-00.015,-09.897,+00.000156,-00.000222,+00.000367*67"
1761939175.288238,1761939175.2875702,6.6497044500983955e-06,9.232791743050003e-06,-1.08035880698449e-05,-0.033,-0.247,9.94,2.44e-05,4.52e-06,3.281e-05,"$VNYMR,-077.645,-001.312,+000.143,+00.0452,+00.2440,-00.3281,-00.247,-00.033,-09.940,+00.000529,+00.000381,+00.000619*68"
1761939175.3133671,1761939175.312391,-1.5707963267948964e-05,-5.410520681182421e-06,-6.126105674500097e-06,-0.034,-0.256,9.85,2.449e-05,4.8200000000000004e-06,3.302e-05,"$VNYMR,-077.643,-001.313,+000.143,+00.0482,+00.2449,-00.3302,-00.256,-00.034,-09.850,-00.000310,-00.000900,+00.000351*60"
1761939175.3382995,1761939175.3375847,1.5341444125030156e-05,3.429571980168858e-05,-3.647738136668149e-06,-0.035,-0.23,9.917,2.44e-05,4.8200000000000004e-06,3.257e-05,"$VNYMR,-077.641,-001.312,+000.145,+00.0482,+00.2440,-00.3257,-00.230,-00.035,-09.917,+00.001965,+00.000879,+00.000209*64"
1761939175.363175,1761939175.3624628,8.726646259971648e-07,-2.1275563581810877e-05,-6.632251157578453e-06,-0.004,-0.234,9.903,2.488e-05,4.8200000000000004e-06,3.2800000000000004e-05,"$VNYMR,-077.639,-001.312,+000.144,+00.0482,+00.2488,-00.3280,-00.234,-00.004,-09.903,-00.001219,+00.000050,+00.000380*62"
1761939175.3889823,1761939175.3878593,3.0089476304382243e-05,2.038544566329377e-05,-8.569566627292159e-06,0.009,-0.228,9.886,2.44e-05,4.72e-06,3.291e-05,"$VNYMR,-077.638,-001.311,+000.144,+00.0472,+00.2440,-00.3291,-00.228,+00.009,-09.886,+00.001168,+00.001724,+00.000491*60"
1761939175.4132385,1761939175.412491,-2.1711895894809462e-05,-1.4102260356114184e-05,1.4695672301792254e-05,-0.023,-0.232,9.85,2.44e-05,4.72e-06,3.291e-05,"$VNYMR,-077.638,-001.311,+000.143,+00.0472,+00.2440,-00.3291,-00.232,-00.023,-09.850,-00.000808,-00.001244,-00.000842*60"
1761939175.4381614,1761939175.4373903,3.741985916275843e-05,3.804817769347639e-06,1.1274826967883368e-05,0.014,-0.236,9.947,2.449e-05,4.8200000000000004e-06,3.302e-05,"$VNYMR,-077.637,-001.311,+000.143,+00.0482,+00.2449,-00.3302,-00.236,+00.014,-09.947,+00.000218,+00.002144,-00.000646*62"
1761939175.4628983,1761939175.4624882,-2.7104963283471937e-05,-2.092649773141201e-05,9.285151620609834e-06,-0.045,-0.249,9.859,2.4690000000000002e-05,4.62e-06,3.336e-05,"$VNYMR,-077.636,-001.312,+000.142,+00.0462,+00.2469,-00.3336,-00.249,-00.045,-09.859,-00.001199,-00.001553,-00.000532*64"
1761939175.4881809,1761939175.4873812,4.637339822548934e-05,-7.73180858633488e-06,1.1100294042683935e-05,-0.041,-0.24,9.897,2.4690000000000002e-05,4.6300000000000006e-06,3.236e-05,"$VNYMR,-077.637,-001.312,+000.143,+00.0463,+00.2469,-00.3236,-00.240,-00.041,-09.897,-00.000443,+00.002657,-00.000636*6D"
1761939175.5142138,1761939175.5131366,-6.126105674500097e-06,-5.1522119518872615e-05,-8.883725892651138e-06,-0.036,-0.238,9.901,2.41e-05,4.81e-06,3.29e-05,"$VNYMR,-077.636,-001.313,+000.142,+00.0481,+00.2410,-00.3290,-00.238,-00.036,-09.901,-00.002952,-00.000351,+00.000509*62"
1761939175.539376,1761939175.5387285,2.9757863746503317e-05,2.251474735072685e-06,1.5987215948268058e-05,-0.017,-0.225,9.884,2.43e-05,4.72e-06,3.291e-05,"$VNYMR,-077.633,-001.312,+000.142,+00.0472,+00.2430,-00.3291,-00.225,-00.017,-09.884,+00.000129,+00.001705,-00.000916*6C"
1761939175.5623825,1761939175.562108,6.370451769779303e-06,-9.337511498169663e-06,1.153662635568252e-05,-0.019,-0.182,9.914,2.4200000000000002e-05,4.62e-06,3.3350000000000004e-05,"$VNYMR,-077.633,-001.313,+000.140,+00.0462,+00.2420,-00.3335,-00.182,-00.019,-09.914,-00.000535,+00.000365,-00.000661*6B"
1761939175.5873158,1761939175.5871322,4.7333329314086216e-05,1.096066770252439e-05,-1.1868238913561442e-05,-0.028,-0.203,9.864,2.4590000000000003e-05,4.72e-06,3.269000000000001e-05,"$VNYMR,-077.633,-001.310,+000.140,+00.0472,+00.2459,-00.3269,-00.203,-00.028,-09.864,+00.000628,+00.002712,+00.000680*67"
1761939175.612391,1761939175.612175,2.3911010752322313e-05,7.330382858376185e-06,2.8571039855147175e-05,-0.039,-0.208,9.888,2.43e-05,4.81e-06,3.29e-05,"$VNYMR,-077.636,-001.309,+000.141,+00.0481,+00.2430,-00.3290,-00.208,-00.039,-09.888,+00.000420,+00.001370,-00.001637*65"
1761939175.6374009,1761939175.6371853,-1.3543754995475998e-05,-2.090904443889207e-05,1.2496557444279398e-05,-0.061,-0.217,9.889,2.4690000000000002e-05,4.6300000000000006e-06,3.292e-05,"$VNYMR,-077.634,-001.310,+000.143,+00.0463,+00.2469,-00.3292,-00.217,-00.061,-09.889,-00.001198,-00.000776,-00.000716*6A"
1761939175.662402,1761939175.6622217,-1.9146261894377796e-05,-7.470009198535731e-06,1.9949113350295186e-05,-0.012,-0.229,9.917,2.4390000000000002e-05,4.9100000000000004e-06,3.257e-05,"$VNYMR,-077.632,-001.310,+000.142,+00.0491,+00.2439,-00.3257,-00.229,-00.012,-09.917,-00.000428,-00.001097,-00.001143*62"
1761939175.687471,1761939175.687242,-1.0716321607245183e-05,-1.1885692206081383e-05,1.2461650859239513e-05,-0.014,-0.216,9.889,2.44e-05,4.72e-06,3.2579999999999996e-05,"$VNYMR,-077.631,-001.311,+000.141,+00.0472,+00.2440,-00.3258,-00.216,-00.014,-09.889,-00.000681,-00.000614,-00.000714*6B"
1761939175.71269,1761939175.7122984,1.2479104151759457e-05,7.138396640656809e-06,5.864306286700947e-06,-0.006,-0.22,9.926,2.498e-05,4.7300000000000005e-06,3.281e-05,"$VNYMR,-077.632,-001.311,+000.140,+00.0473,+00.2498,-00.3281,-00.220,-00.006,-09.926,+00.000409,+00.000715,-00.000336*6D"
1761939175.7375038,1761939175.7372458,1.0995574287564276e-05,-3.07177948351002e-05,2.230530784048753e-05,-0.024,-0.232,9.867,2.43e-05,4.62e-06,3.313e-05,"$VNYMR,-077.631,-001.311,+000.139,+00.0462,+00.2430,-00.3313,-00.232,-00.024,-09.867,-00.001760,+00.000630,-00.001278*68"
1761939175.763468,1761939175.7625103,1.1309733552923257e-05,5.742133239061343e-06,7.016223593017205e-06,-0.044,-0.234,9.865,2.45e-05,4.62e-06,3.2579999999999996e-05,"$VNYMR,-077.631,-001.309,+000.140,+00.0462,+00.2450,-00.3258,-00.234,-00.044,-09.865,+00.000329,+00.000648,-00.000402*6E"
1761939175.788326,1761939175.787565,-5.305800926062762e-06,-5.811946409141118e-06,-6.963863715457375e-06,-0.027,-0.257,9.893,2.479e-05,4.6300000000000006e-06,3.303e-05,"$VNYMR,-077.631,-001.309,+000.141,+00.0463,+00.2479,-00.3303,-00.257,-00.027,-09.893,-00.000333,-00.000304,+00.000399*66"
1761939175.8129125,1761939175.812311,2.7087509990951996e-05,9.26769832808989e-06,-1.825614397586069e-05,-0.038,-0.218,9.893,2.4590000000000003e-05,4.8200000000000004e-06,3.2800000000000004e-05,"$VNYMR,-077.630,-001.308,+000.142,+00.0482,+00.2459,-00.3280,-00.218,-00.038,-09.893,+00.000531,+00.001552,+00.001046*67"
1761939175.8376334,1761939175.8373659,1.1344640137963142e-05,-2.715732316103177e-05,1.9460421159736775e-05,-0.016,-0.209,9.882,2.489e-05,4.53e-06,3.281e-05,"$VNYMR,-077.629,-001.307,+000.142,+00.0453,+00.2489,-00.3281,-00.209,-00.016,-09.882,-00.001556,+00.000650,-00.001115*6B"
1761939175.8628988,1761939175.8623009,2.373647782712288e-06,1.916371518689774e-05,6.632251157578453e-07,-0.01,-0.246,9.882,2.4390000000000002e-05,4.81e-06,3.3350000000000004e-05,"$VNYMR,-077.627,-001.304,+000.142,+00.0481,+00.2439,-00.3335,-00.246,-00.010,-09.882,+00.001098,+00.000136,-00.000038*68"
1761939175.88834,1761939175.887526,-2.605776573227534e-05,-4.904375198104066e-06,-1.2426744274199626e-05,-0.042,-0.274,9.888,2.5080000000000004e-05,4.8200000000000004e-06,3.313e-05,"$VNYMR,-077.627,-001.305,+000.141,+00.0482,+00.2508,-00.3313,-00.274,-00.042,-09.888,-00.000281,-00.001493,+00.000712*6B"
1761939175.9134147,1761939175.9125247,8.53466004225227e-06,-2.038544566329377e-05,1.3753194505715317e-05,-0.03,-0.273,9.889,2.4590000000000003e-05,4.72e-06,3.236e-05,"$VNYMR,-077.628,-001.307,+000.142,+00.0472,+00.2459,-00.3236,-00.273,-00.030,-09.889,-00.001168,+00.000489,-00.000788*66"
1761939175.9383175,1761939175.9374537,-1.3805554383275147e-05,2.5307274153917775e-05,-5.811946409141118e-06,-0.004,-0.233,9.896,2.4590000000000003e-05,4.62e-06,3.303e-05,"$VNYMR,-077.628,-001.308,+000.142,+00.0462,+00.2459,-00.3303,-00.233,-00.004,-09.896,+00.001450,-00.000791,+00.000333*64"
1761939175.963251,1761939175.9625523,8.325220532012952e-06,-2.429498318776107e-05,-1.9547687622336493e-06,-0.014,-0.245,9.877,2.4590000000000003e-05,4.8200000000000004e-06,3.302e-05,"$VNYMR,-077.625,-001.307,+000.140,+00.0482,+00.2459,-00.3302,-00.245,-00.014,-09.877,-00.001392,+00.000477,+00.000112*67"
1761939175.9875748,1761939175.9873211,-2.5918139392115795e-05,7.347836150896127e-06,2.478367537831948e-05,-0.02,-0.208,9.895,2.44e-05,4.72e-06,3.291e-05,"$VNYMR,-077.625,-001.308,+000.140,+00.0472,+00.2440,-00.3291,-00.208,-00.020,-09.895,+00.000421,-00.001485,-00.001420*67"
1761939176.013562,1761939176.0125637,-1.0349802464326375e-05,-1.5725416560468908e-05,-1.3753194505715317e-05,-0.057,-0.226,9.907,2.449e-05,4.72e-06,3.2800000000000004e-05,"$VNYMR,-077.624,-001.307,+000.139,+00.0472,+00.2449,-00.3280,-00.226,-00.057,-09.907,-00.000901,-00.000593,+00.000788*60"
1761939176.03791,1761939176.037359,-1.0070549784007283e-05,6.056292504420323e-06,-4.398229715025711e-06,-0.041,-0.205,9.876,2.4590000000000003e-05,4.92e-06,3.29e-05,"$VNYMR,-077.625,-001.307,+000.142,+00.0492,+00.2459,-00.3290,-00.205,-00.041,-09.876,+00.000347,-00.000577,+00.000252*64"
1761939176.0639198,1761939176.0628858,2.986258350162298e-05,4.7123889803846896e-07,1.186823891356144e-06,-0.061,-0.219,9.865,2.43e-05,4.72e-06,3.2579999999999996e-05,"$VNYMR,-077.625,-001.306,+000.144,+00.0472,+00.2430,-00.3258,-00.219,-00.061,-09.865,+00.000027,+00.001711,-00.000068*66"
1761939176.0880713,1761939176.087678,1.92684349420174e-05,2.2479840765686966e-05,-6.422811647339133e-06,-0.005,-0.236,9.893,2.449e-05,4.72e-06,3.302e-05,"$VNYMR,-077.624,-001.304,+000.145,+00.0472,+00.2449,-00.3302,-00.236,-00.005,-09.893,+00.001288,+00.001104,+00.000368*63"
1761939176.1134791,1761939176.11237,1.0559241974565693e-05,-2.2287854547967587e-05,-1.0297442586766545e-05,-0.012,-0.232,9.92,2.449e-05,4.62e-06,3.2800000000000004e-05,"$VNYMR,-077.621,-001.305,+000.142,+00.0462,+00.2449,-00.3280,-00.232,-00.012,-09.920,-00.001277,+00.000605,+00.000590*61"
1761939176.1435823,1761939176.142982,-1.7243853009703976e-05,1.9198621771937624e-07,1.2828170002158321e-05,-0.037,-0.219,9.851,2.4e-05,4.9100000000000004e-06,3.256e-05,"$VNYMR,-077.622,-001.305,+000.142,+00.0491,+00.2400,-00.3256,-00.219,-00.037,-09.851,+00.000011,-00.000988,-00.000735*63"
1761939176.1625621,1761939176.162239,-1.4643312424232425e-05,4.34586983746588e-06,1.9844393595175527e-05,-0.022,-0.216,9.896,2.449e-05,4.72e-06,3.247e-05,"$VNYMR,-077.624,-001.307,+000.142,+00.0472,+00.2449,-00.3247,-00.216,-00.022,-09.896,+00.000249,-00.000839,-00.001137*66"
1761939176.1874568,1761939176.187274,-3.2288591161895097e-06,-9.791297103688189e-06,1.1676252695842065e-05,-0.001,-0.188,9.906,2.449e-05,4.62e-06,3.314e-05,"$VNYMR,-077.623,-001.306,+000.142,+00.0462,+00.2449,-00.3314,-00.188,-00.001,-09.906,-00.000561,-00.000185,-00.000669*63"
1761939176.2124581,1761939176.2122977,-2.8483773392547458e-05,-1.0471975511965977e-05,4.206243497306334e-06,-0.038,-0.203,9.86,2.449e-05,4.62e-06,3.291e-05,"$VNYMR,-077.623,-001.305,+000.141,+00.0462,+00.2449,-00.3291,-00.203,-00.038,-09.860,-00.000600,-00.001632,-00.000241*64"
1761939176.2373996,1761939176.2372482,2.066469834361286e-05,4.86946861306418e-06,-1.525417766243044e-05,-0.047,-0.203,9.923,2.449e-05,4.72e-06,3.291e-05,"$VNYMR,-077.622,-001.303,+000.142,+00.0472,+00.2449,-00.3291,-00.203,-00.047,-09.923,+00.000279,+00.001184,+00.000874*65"
1761939176.2625346,1761939176.2623441,-8.098327729253689e-06,-8.831366015091308e-06,-3.298672286269283e-06,-0.039,-0.204,9.885,2.4590000000000003e-05,4.8200000000000004e-06,3.2800000000000004e-05,"$VNYMR,-077.620,-001.303,+000.144,+00.0482,+00.2459,-00.3280,-00.204,-00.039,-09.885,-00.000506,-00.000464,+00.000189*62"
1761939176.2875793,1761939176.2873943,4.537856055185257e-06,1.043706892692609e-05,-1.551597705022959e-05,-0.032,-0.231,9.92,2.41e-05,4.81e-06,3.279e-05,"$VNYMR,-077.618,-001.303,+000.143,+00.0481,+00.2410,-00.3279,-00.231,-00.032,-09.920,+00.000598,+00.000260,+00.000889*69"
1761939176.3125298,1761939176.3123577,-2.4033183799961916e-05,-2.55167136641571e-05,-1.937315469713706e-06,-0.029,-0.221,9.883,2.43e-05,4.81e-06,3.346e-05,"$VNYMR,-077.618,-001.304,+000.143,+00.0481,+00.2430,-00.3346,-00.221,-00.029,-09.883,-00.001462,-00.001377,+00.000111*69"
1761939176.3376422,1761939176.3374274,2.0106192982974677e-05,1.3788101090755203e-05,-3.0892327760299633e-06,0.007,-0.23,9.882,2.4690000000000002e-05,4.72e-06,3.302e-05,"$VNYMR,-077.616,-001.305,+000.141,+00.0472,+00.2469,-00.3302,-00.230,+00.007,-09.882,+00.000790,+00.001152,+00.000177*65"
1761939176.3638463,1761939176.362631,-7.086036763096978e-06,-3.5081117965086026e-06,9.983283321407565e-06,-0.011,-0.221,9.933,2.488e-05,4.8200000000000004e-06,3.2579999999999996e-05,"$VNYMR,-077.616,-001.304,+000.140,+00.0482,+00.2488,-00.3258,-00.221,-00.011,-09.933,-00.000201,-00.000406,-00.000572*6E"
1761939176.3883715,1761939176.3876176,-8.237954069413236e-06,1.3631021458075714e-05,8.831366015091308e-06,-0.023,-0.253,9.854,2.43e-05,4.8200000000000004e-06,3.2460000000000004e-05,"$VNYMR,-077.616,-001.304,+000.141,+00.0482,+00.2430,-00.3246,-00.253,-00.023,-09.854,+00.000781,-00.000472,-00.000506*6C"
1761939176.4136984,1761939176.412659,1.1170107212763709e-06,-9.965830028887622e-06,-3.5081117965086026e-06,-0.04,-0.232,9.903,2.4390000000000002e-05,5.01e-06,3.367e-05,"$VNYMR,-077.616,-001.304,+000.142,+00.0501,+00.2439,-00.3367,-00.232,-00.040,-09.903,-00.000571,+00.000064,+00.000201*67"
1761939176.438674,1761939176.4377427,-1.3264502315156905e-06,3.473205211468716e-06,-1.762782544514273e-05,-0.039,-0.235,9.854,2.478e-05,4.72e-06,3.435e-05,"$VNYMR,-077.615,-001.303,+000.145,+00.0472,+00.2478,-00.3435,-00.235,-00.039,-09.854,+00.000199,-00.000076,+00.001010*6C"
1761939176.4638734,1761939176.4630492,3.146828641345776e-05,1.0838494654884787e-05,1.4346606451393389e-05,-0.006,-0.221,9.912,2.4690000000000002e-05,4.72e-06,3.269000000000001e-05,"$VNYMR,-077.614,-001.300,+000.145,+00.0472,+00.2469,-00.3269,-00.221,-00.006,-09.912,+00.000621,+00.001803,-00.000822*6C"
1761939176.4875875,1761939176.487392,1.3700834628155487e-05,1.0629055144645467e-05,1.2007865253720988e-05,-0.028,-0.237,9.873,2.498e-05,4.6300000000000006e-06,3.314e-05,"$VNYMR,-077.614,-001.297,+000.144,+00.0463,+00.2498,-00.3314,-00.237,-00.028,-09.873,+00.000609,+00.000785,-00.000688*6E"
1761939176.5126042,1761939176.512397,1.1274826967883368e-05,-2.230530784048753e-05,5.550147021341967e-06,-0.02,-0.236,9.941,2.4590000000000003e-05,4.72e-06,3.324e-05,"$VNYMR,-077.614,-001.298,+000.144,+00.0472,+00.2459,-00.3324,-00.236,-00.020,-09.941,-00.001278,+00.000646,-00.000318*61"
1761939176.5376418,1761939176.537425,-3.0997047515419294e-05,-1.6877333866785165e-05,-1.1885692206081383e-05,-0.027,-0.275,9.854,2.449e-05,4.62e-06,3.347e-05,"$VNYMR,-077.612,-001.300,+000.145,+00.0462,+00.2449,-00.3347,-00.275,-00.027,-09.854,-00.000967,-00.001776,+00.000681*64"
1761939176.563841,1761939176.5625641,2.6319565120074488e-05,9.73893722612836e-06,-7.4176493209759e-06,-0.03,-0.231,9.869,2.5169999999999998e-05,4.92e-06,3.302e-05,"$VNYMR,-077.611,-001.302,+000.146,+00.0492,+00.2517,-00.3302,-00.231,-00.030,-09.869,+00.000558,+00.001508,+00.000425*6D"
1761939176.5886114,1761939176.5879915,-2.8955012290585927e-05,-1.92684349420174e-05,-5.480333851262195e-06,-0.007,-0.213,9.901,2.449e-05,4.72e-06,3.291e-05,"$VNYMR,-077.610,-001.303,+000.145,+00.0472,+00.2449,-00.3291,-00.213,-00.007,-09.901,-00.001104,-00.001659,+00.000314*64"
1761939176.61274,1761939176.6124878,2.701769682087222e-05,2.2235494670407758e-05,4.677482395344804e-06,-0.009,-0.217,9.885,2.4690000000000002e-05,4.72e-06,3.324e-05,"$VNYMR,-077.610,-001.302,+000.143,+00.0472,+00.2469,-00.3324,-00.217,-00.009,-09.885,+00.001274,+00.001548,-00.000268*62"
1761939176.6384747,1761939176.637623,1.0122909661567111e-06,1.58824961931484e-06,1.2217304763960306e-05,-0.045,-0.207,9.897,2.43e-05,4.52e-06,3.336e-05,"$VNYMR,-077.610,-001.301,+000.142,+00.0452,+00.2430,-00.3336,-00.207,-00.045,-09.897,+00.000091,+00.000058,-00.000700*61"
1761939176.6635046,1761939176.6626906,5.323254218582705e-05,1.6650441064025904e-05,5.637413483941684e-06,-0.042,-0.215,9.874,2.4590000000000003e-05,4.92e-06,3.29e-05,"$VNYMR,-077.610,-001.300,+000.144,+00.0492,+00.2459,-00.3290,-00.215,-00.042,-09.874,+00.000954,+00.003050,-00.000323*6F"
1761939176.6877403,1761939176.6874874,-3.85368698840348e-05,-1.7400932642383467e-05,-1.064650843716541e-06,-0.019,-0.224,9.872,2.44e-05,4.8200000000000004e-06,3.268e-05,"$VNYMR,-077.609,-001.299,+000.145,+00.0482,+00.2440,-00.3268,-00.224,-00.019,-09.872,-00.000997,-00.002208,+00.000061*61"
1761939176.714875,1761939176.7134616,6.387905062299246e-06,-5.82939970166106e-06,2.1118483949131386e-05,-0.047,-0.223,9.849,2.43e-05,4.81e-06,3.279e-05,"$VNYMR,-077.609,-001.299,+000.145,+00.0481,+00.2430,-00.3279,-00.223,-00.047,-09.849,-00.000334,+00.000366,-00.001210*6C"
1761939176.7437491,1761939176.7431955,1.1082840750163994e-05,5.3232542185827045e-06,-3.7000980142279786e-06,-0.027,-0.214,9.916,2.537e-05,4.93e-06,3.324e-05,"$VNYMR,-077.608,-001.300,+000.144,+00.0493,+00.2537,-00.3324,-00.214,-00.027,-09.916,+00.000305,+00.000635,+00.000212*6A"
1761939176.762627,1761939176.7623968,1.2583823906879116e-05,1.6057029118347832e-06,1.054178868204575e-05,-0.044,-0.231,9.854,2.44e-05,4.62e-06,3.313e-05,"$VNYMR,-077.609,-001.302,+000.145,+00.0462,+00.2440,-00.3313,-00.231,-00.044,-09.854,+00.000092,+00.000721,-00.000604*6A"
1761939176.7876365,1761939176.787429,1.3665928043115599e-05,-6.387905062299246e-06,4.014257279586958e-06,-0.03,-0.222,9.906,2.5169999999999998e-05,4.83e-06,3.313e-05,"$VNYMR,-077.608,-001.303,+000.144,+00.0483,+00.2517,-00.3313,-00.222,-00.030,-09.906,-00.000366,+00.000783,-00.000230*65"
1761939176.812652,1761939176.812458,-0.00012123056984352613,5.759586531581288e-07,2.1205750411731104e-05,-0.038,-0.195,9.891,2.488e-05,4.8200000000000004e-06,3.2800000000000004e-05,"$VNYMR,-077.607,-001.305,+000.146,+00.0482,+00.2488,-00.3280,-00.195,-00.038,-09.891,+00.000033,-00.006946,-00.001215*6F"
1761939176.8377128,1761939176.8374605,0.00010276498635742612,1.4852751934471744e-05,-5.9864793343405504e-06,-0.032,-0.216,9.932,2.498e-05,4.92e-06,3.302e-05,"$VNYMR,-077.607,-001.303,+000.145,+00.0492,+00.2498,-00.3302,-00.216,-00.032,-09.932,+00.000851,+00.005888,+00.000343*64"
1761939176.862646,1761939176.8624656,-7.525859734599549e-05,-9.73893722612836e-06,1.223475805648025e-05,-0.033,-0.207,9.875,2.449e-05,4.72e-06,3.3350000000000004e-05,"$VNYMR,-077.607,-001.305,+000.146,+00.0472,+00.2449,-00.3335,-00.207,-00.033,-09.875,-00.000558,-00.004312,-00.000701*6D"
1761939176.8876684,1761939176.8874762,6.394886379307223e-05,7.609635538695278e-06,4.206243497306334e-06,-0.031,-0.203,9.866,2.488e-05,4.8200000000000004e-06,3.291e-05,"$VNYMR,-077.607,-001.304,+000.145,+00.0482,+00.2488,-00.3291,-00.203,-00.031,-09.866,+00.000436,+00.003664,-00.000241*6D"
1761939176.9128983,1761939176.912558,-3.81354441560761e-05,-1.9512781037296604e-05,1.4800392056911915e-05,-0.022,-0.214,9.906,2.5180000000000003e-05,4.7300000000000005e-06,3.303e-05,"$VNYMR,-077.605,-001.305,+000.145,+00.0473,+00.2518,-00.3303,-00.214,-00.022,-09.906,-00.001118,-00.002185,-00.000848*63"
1761939176.9376862,1761939176.937501,2.8832839242946325e-05,1.3439035240356336e-05,-1.5865042900628455e-05,-0.021,-0.229,9.908,2.449e-05,4.72e-06,3.2800000000000004e-05,"$VNYMR,-077.604,-001.305,+000.145,+00.0472,+00.2449,-00.3280,-00.229,-00.021,-09.908,+00.000770,+00.001652,+00.000909*6A"
1761939176.96288,1761939176.9625635,-4.1346849979745666e-05,-2.2881266493645663e-05,-5.148721293383273e-06,-0.016,-0.26,9.879,2.43e-05,4.81e-06,3.29e-05,"$VNYMR,-077.604,-001.306,+000.144,+00.0481,+00.2430,-00.3290,-00.260,-00.016,-09.879,-00.001311,-00.002369,+00.000295*67"
1761939176.989179,1761939176.9883566,2.0804324683772408e-05,3.0421088862261163e-05,-1.0122909661567112e-05,-0.014,-0.26,9.877,2.43e-05,4.62e-06,3.369e-05,"$VNYMR,-077.602,-001.306,+000.143,+00.0462,+00.2430,-00.3369,-00.260,-00.014,-09.877,+00.001743,+00.001192,+00.000580*65"
1761939177.0133793,1761939177.0125532,9.302604913129778e-06,3.6826447217080353e-06,-6.003932626860494e-06,-0.018,-0.26,9.943,2.449e-05,4.9100000000000004e-06,3.279e-05,"$VNYMR,-077.603,-001.305,+000.143,+00.0491,+00.2449,-00.3279,-00.260,-00.018,-09.943,+00.000211,+00.000533,+00.000344*6C"
1761939177.0382645,1761939177.0375934,3.104940739297912e-05,-7.016223593017205e-06,-1.7104226669544429e-06,-0.009,-0.206,9.846,2.5080000000000004e-05,4.83e-06,3.2800000000000004e-05,"$VNYMR,-077.601,-001.305,+000.143,+00.0483,+00.2508,-00.3280,-00.206,-00.009,-09.846,-00.000402,+00.001779,+00.000098*66"
1761939177.0632234,1761939177.062589,-8.255407361933178e-06,2.4993114888558796e-05,2.691297706575256e-05,-0.027,-0.225,9.917,2.43e-05,4.62e-06,3.346e-05,"$VNYMR,-077.602,-001.305,+000.143,+00.0462,+00.2430,-00.3346,-00.225,-00.027,-09.917,+00.001432,-00.000473,-00.001542*6C"
1761939177.088281,1761939177.0875816,2.4120450262561634e-05,1.3002702927357755e-05,-2.738421596379103e-05,-0.044,-0.241,9.833,2.44e-05,4.72e-06,3.313e-05,"$VNYMR,-077.602,-001.304,+000.143,+00.0472,+00.2440,-00.3313,-00.241,-00.044,-09.833,+00.000745,+00.001382,+00.001569*68"
1761939177.1134167,1761939177.1126578,1.7837264955382045e-05,3.3335788713091696e-05,-7.73180858633488e-06,-0.024,-0.242,9.924,2.488e-05,4.6300000000000006e-06,3.347e-05,"$VNYMR,-077.600,-001.304,+000.143,+00.0463,+00.2488,-00.3347,-00.242,-00.024,-09.924,+00.001910,+00.001022,+00.000443*63"
1761939177.1382964,1761939177.1375866,-4.825835381764321e-05,-2.176425577236929e-05,2.5481807079117213e-06,0.001,-0.24,9.876,2.449e-05,4.72e-06,3.357e-05,"$VNYMR,-077.600,-001.305,+000.144,+00.0472,+00.2449,-00.3357,-00.240,+00.001,-09.876,-00.001247,-00.002765,-00.000146*64"
1761939177.163575,1761939177.162946,-3.876376268679406e-05,-3.612831551628262e-06,-6.248278722139699e-06,-0.016,-0.261,9.76,2.4200000000000002e-05,4.9100000000000004e-06,3.3010000000000004e-05,"$VNYMR,-077.599,-001.306,+000.143,+00.0491,+00.2420,-00.3301,-00.261,-00.016,-09.760,-00.000207,-00.002221,+00.000358*62"
1761939177.1883595,1761939177.1876235,-1.980948701013564e-05,-3.490658503988659e-06,-4.886921905584123e-07,-0.06,-0.21,9.996,2.44e-05,4.62e-06,3.358e-05,"$VNYMR,-077.597,-001.304,+000.143,+00.0462,+00.2440,-00.3358,-00.210,-00.060,-09.996,-00.000200,-00.001135,+00.000028*6E"
1761939177.213629,1761939177.212942,-3.260275042725408e-05,2.55167136641571e-05,-3.4906585039886593e-07,-0.026,-0.229,9.847,2.4690000000000002e-05,4.8200000000000004e-06,3.2800000000000004e-05,"$VNYMR,-077.597,-001.307,+000.144,+00.0482,+00.2469,-00.3280,-00.229,-00.026,-09.847,+00.001462,-00.001868,+00.000020*62"
1761939177.2380166,1761939177.2375894,9.128071987930345e-06,-4.174827570770436e-05,-1.2828170002158321e-05,-0.02,-0.225,9.919,2.4390000000000002e-05,4.9100000000000004e-06,3.279e-05,"$VNYMR,-077.594,-001.306,+000.143,+00.0491,+00.2439,-00.3279,-00.225,-00.020,-09.919,-00.002392,+00.000523,+00.000735*6D"
1761939177.2633402,1761939177.2626426,5.7072266540214576e-06,-1.0978120995044334e-05,-2.1153390534171275e-05,-0.017,-0.235,9.829,2.478e-05,4.92e-06,3.313e-05,"$VNYMR,-077.595,-001.306,+000.143,+00.0492,+00.2478,-00.3313,-00.235,-00.017,-09.829,-00.000629,+00.000327,+00.001212*64"
1761939177.2884526,1761939177.2877266,-8.63937979737193e-06,1.58824961931484e-06,5.88175957922089e-06,-0.01,-0.196,9.939,2.4690000000000002e-05,4.62e-06,3.336e-05,"$VNYMR,-077.595,-001.306,+000.141,+00.0462,+00.2469,-00.3336,-00.196,-00.010,-09.939,+00.000091,-00.000495,-00.000337*69"
1761939177.313352,1761939177.312686,-1.0506882097005864e-05,1.0716321607245183e-05,4.60766922526503e-06,-0.029,-0.206,9.84,2.449e-05,4.72e-06,3.3350000000000004e-05,"$VNYMR,-077.594,-001.308,+000.143,+00.0472,+00.2449,-00.3335,-00.206,-00.029,-09.840,+00.000614,-00.000602,-00.000264*6B"
1761939177.3380773,1761939177.337604,-2.460914245312005e-06,2.3387411976724018e-05,2.6529004630313812e-05,-0.028,-0.203,9.941,2.449e-05,4.72e-06,3.302e-05,"$VNYMR,-077.595,-001.307,+000.142,+00.0472,+00.2449,-00.3302,-00.203,-00.028,-09.941,+00.001340,-00.000141,-00.001520*67"
1761939177.363148,1761939177.3626153,-1.5201817784870611e-05,-3.17649923862968e-05,-1.6126842288427605e-05,-0.05,-0.247,9.82,2.449e-05,4.420000000000001e-06,3.3700000000000006e-05,"$VNYMR,-077.595,-001.308,+000.144,+00.0442,+00.2449,-00.3370,-00.247,-00.050,-09.820,-00.001820,-00.000871,+00.000924*6F"
1761939177.3878074,1761939177.3875463,9.73893722612836e-06,4.2446407408502096e-05,-3.647738136668149e-06,0.0,-0.227,9.971,2.4590000000000003e-05,4.72e-06,3.291e-05,"$VNYMR,-077.596,-001.308,+000.144,+00.0472,+00.2459,-00.3291,-00.227,+00.000,-09.971,+00.002432,+00.000558,+00.000209*6E"
1761939177.412885,1761939177.4126117,-1.1397000015522973e-05,-4.60766922526503e-06,-1.5271630954950383e-05,-0.006,-0.224,9.846,2.449e-05,4.72e-06,3.3350000000000004e-05,"$VNYMR,-077.594,-001.308,+000.143,+00.0472,+00.2449,-00.3335,-00.224,-00.006,-09.846,-00.000264,-00.000653,+00.000875*6D"
1761939177.4377177,1761939177.4375284,-1.0175269539126941e-05,1.8099064343181195e-05,4.799655442984406e-06,-0.023,-0.212,9.915,2.478e-05,4.8200000000000004e-06,3.324e-05,"$VNYMR,-077.593,-001.308,+000.143,+00.0482,+00.2478,-00.3324,-00.212,-00.023,-09.915,+00.001037,-00.000583,-00.000275*63"
1761939177.4627151,1761939177.4625275,-5.689773361501514e-06,-1.3788101090755203e-05,-9.564404300928926e-06,-0.031,-0.216,9.854,2.4590000000000003e-05,4.62e-06,3.38e-05,"$VNYMR,-077.594,-001.309,+000.143,+00.0462,+00.2459,-00.3380,-00.216,-00.031,-09.854,-00.000790,-00.000326,+00.000548*6E"
1761939177.487725,1761939177.4875722,2.1938788697568723e-05,1.6388641676226754e-05,9.145525280450287e-06,-0.057,-0.224,9.906,2.41e-05,4.9100000000000004e-06,3.3010000000000004e-05,"$VNYMR,-077.595,-001.308,+000.144,+00.0491,+00.2410,-00.3301,-00.224,-00.057,-09.906,+00.000939,+00.001257,-00.000524*61"
1761939177.512784,1761939177.512595,-2.241002759560719e-05,1.1519173063162575e-05,4.7123889803846896e-06,-0.029,-0.212,9.855,2.43e-05,4.710000000000001e-06,3.357e-05,"$VNYMR,-077.594,-001.307,+000.144,+00.0471,+00.2430,-00.3357,-00.212,-00.029,-09.855,+00.000660,-00.001284,-00.000270*66"
